'Id: "" Comment: "" Operator: "Lab Manager" Anode: "Cu" Scantype: "Coupled TwoTheta/Theta" TimePerStep: "192" 
5.0000 6.823
5.0096 6.943
5.0192 6.755
5.0289 6.828
5.0385 6.938
5.0481 6.828
5.0577 6.469
5.0673 6.375
5.0769 6.552
5.0866 6.323
5.0962 6.844
5.1058 6.792
5.1154 6.599
5.1250 6.307
5.1346 6.151
5.1443 6.000
5.1539 6.500
5.1635 6.203
5.1731 6.411
5.1827 6.432
5.1923 6.146
5.2020 6.057
5.2116 6.073
5.2212 6.115
5.2308 5.932
5.2404 6.130
5.2500 6.130
5.2597 6.042
5.2693 6.375
5.2789 6.057
5.2885 6.281
5.2981 5.781
5.3077 5.849
5.3174 6.052
5.3270 6.094
5.3366 5.734
5.3462 5.979
5.3558 5.901
5.3654 5.813
5.3751 6.057
5.3847 6.073
5.3943 5.922
5.4039 6.036
5.4135 5.724
5.4231 5.802
5.4328 6.026
5.4424 5.948
5.4520 5.740
5.4616 6.146
5.4712 6.047
5.4808 5.677
5.4905 5.620
5.5001 5.484
5.5097 5.755
5.5193 6.010
5.5289 5.771
5.5386 5.818
5.5482 5.922
5.5578 5.682
5.5674 5.745
5.5770 5.635
5.5866 5.818
5.5963 5.583
5.6059 5.615
5.6155 5.672
5.6251 6.000
5.6347 5.552
5.6443 5.708
5.6540 5.573
5.6636 5.474
5.6732 5.896
5.6828 5.443
5.6924 5.599
5.7020 5.635
5.7117 5.953
5.7213 5.807
5.7309 5.266
5.7405 5.703
5.7501 5.443
5.7597 5.448
5.7694 5.568
5.7790 5.417
5.7886 5.844
5.7982 5.469
5.8078 5.714
5.8174 5.370
5.8271 5.667
5.8367 5.146
5.8463 5.573
5.8559 5.760
5.8655 5.188
5.8751 5.339
5.8848 5.359
5.8944 5.292
5.9040 5.302
5.9136 5.552
5.9232 5.135
5.9328 5.469
5.9425 5.521
5.9521 5.182
5.9617 5.323
5.9713 5.339
5.9809 5.641
5.9905 5.318
6.0002 5.260
6.0098 5.495
6.0194 5.302
6.0290 4.984
6.0386 5.276
6.0483 4.974
6.0579 4.891
6.0675 5.349
6.0771 5.057
6.0867 5.172
6.0963 5.177
6.1060 5.083
6.1156 5.193
6.1252 4.938
6.1348 5.083
6.1444 5.193
6.1540 5.104
6.1637 5.323
6.1733 5.198
6.1829 5.271
6.1925 5.193
6.2021 5.089
6.2117 5.266
6.2214 5.151
6.2310 5.406
6.2406 4.932
6.2502 5.250
6.2598 5.104
6.2694 5.349
6.2791 5.417
6.2887 5.958
6.2983 5.557
6.3079 5.161
6.3175 5.083
6.3271 5.036
6.3368 5.224
6.3464 5.083
6.3560 4.885
6.3656 4.844
6.3752 5.266
6.3848 5.068
6.3945 4.703
6.4041 4.776
6.4137 4.854
6.4233 4.568
6.4329 4.823
6.4425 4.839
6.4522 5.125
6.4618 4.792
6.4714 4.536
6.4810 4.906
6.4906 4.630
6.5003 4.667
6.5099 4.458
6.5195 4.849
6.5291 4.797
6.5387 4.667
6.5483 4.880
6.5580 4.563
6.5676 4.594
6.5772 4.578
6.5868 4.771
6.5964 4.448
6.6060 4.448
6.6157 4.854
6.6253 4.693
6.6349 4.583
6.6445 4.422
6.6541 4.438
6.6637 4.349
6.6734 4.349
6.6830 4.276
6.6926 4.333
6.7022 4.484
6.7118 4.438
6.7214 4.495
6.7311 4.198
6.7407 4.406
6.7503 4.214
6.7599 4.349
6.7695 4.469
6.7791 4.302
6.7888 4.521
6.7984 4.240
6.8080 4.229
6.8176 4.313
6.8272 4.458
6.8368 4.260
6.8465 4.219
6.8561 4.318
6.8657 4.125
6.8753 4.349
6.8849 4.010
6.8945 4.354
6.9042 4.135
6.9138 4.203
6.9234 4.245
6.9330 4.510
6.9426 4.214
6.9522 4.005
6.9619 4.130
6.9715 4.089
6.9811 4.094
6.9907 4.245
7.0003 4.385
7.0100 4.021
7.0196 4.234
7.0292 4.052
7.0388 4.125
7.0484 3.948
7.0580 3.943
7.0677 4.172
7.0773 3.854
7.0869 4.063
7.0965 4.318
7.1061 4.089
7.1157 4.036
7.1254 3.885
7.1350 4.005
7.1446 3.927
7.1542 4.057
7.1638 3.938
7.1734 3.896
7.1831 3.703
7.1927 4.068
7.2023 4.318
7.2119 3.698
7.2215 3.786
7.2311 3.922
7.2408 3.870
7.2504 3.797
7.2600 3.620
7.2696 3.875
7.2792 3.938
7.2888 3.901
7.2985 3.677
7.3081 4.078
7.3177 3.922
7.3273 3.865
7.3369 3.807
7.3465 3.651
7.3562 3.688
7.3658 4.016
7.3754 3.698
7.3850 3.688
7.3946 3.474
7.4042 3.719
7.4139 3.776
7.4235 3.797
7.4331 3.661
7.4427 3.661
7.4523 3.630
7.4619 3.750
7.4716 3.786
7.4812 3.625
7.4908 3.552
7.5004 3.583
7.5100 3.688
7.5197 3.635
7.5293 3.557
7.5389 3.682
7.5485 3.609
7.5581 3.656
7.5677 3.734
7.5774 3.427
7.5870 3.599
7.5966 3.760
7.6062 3.505
7.6158 3.776
7.6254 3.385
7.6351 3.620
7.6447 3.406
7.6543 3.719
7.6639 3.443
7.6735 3.354
7.6831 3.786
7.6928 3.646
7.7024 3.760
7.7120 3.443
7.7216 3.516
7.7312 3.536
7.7408 3.286
7.7505 3.198
7.7601 3.297
7.7697 3.443
7.7793 3.354
7.7889 3.307
7.7985 3.573
7.8082 3.281
7.8178 3.047
7.8274 3.354
7.8370 3.297
7.8466 3.469
7.8562 3.234
7.8659 3.333
7.8755 3.177
7.8851 3.380
7.8947 3.464
7.9043 3.260
7.9139 2.865
7.9236 3.026
7.9332 3.276
7.9428 3.219
7.9524 3.219
7.9620 3.198
7.9716 3.396
7.9813 3.198
7.9909 3.099
8.0005 3.172
8.0101 3.208
8.0197 3.240
8.0294 3.401
8.0390 3.307
8.0486 3.255
8.0582 3.099
8.0678 3.307
8.0774 3.260
8.0871 2.786
8.0967 3.188
8.1063 3.172
8.1159 3.068
8.1255 3.099
8.1351 3.125
8.1448 3.177
8.1544 2.854
8.1640 2.911
8.1736 3.047
8.1832 2.911
8.1928 2.875
8.2025 3.109
8.2121 2.990
8.2217 3.000
8.2313 2.938
8.2409 3.260
8.2505 2.771
8.2602 3.141
8.2698 2.932
8.2794 3.109
8.2890 2.844
8.2986 2.854
8.3082 2.880
8.3179 2.786
8.3275 2.813
8.3371 2.854
8.3467 2.948
8.3563 3.115
8.3659 2.911
8.3756 3.099
8.3852 3.005
8.3948 2.786
8.4044 2.703
8.4140 2.646
8.4236 2.802
8.4333 2.865
8.4429 2.823
8.4525 2.875
8.4621 3.016
8.4717 2.958
8.4813 2.833
8.4910 2.948
8.5006 2.906
8.5102 2.911
8.5198 2.891
8.5294 2.792
8.5391 3.042
8.5487 3.109
8.5583 2.948
8.5679 2.865
8.5775 2.807
8.5871 2.974
8.5968 2.917
8.6064 2.672
8.6160 2.635
8.6256 2.823
8.6352 2.630
8.6448 3.005
8.6545 2.807
8.6641 2.760
8.6737 2.828
8.6833 2.818
8.6929 2.661
8.7025 2.818
8.7122 2.833
8.7218 2.734
8.7314 3.016
8.7410 2.729
8.7506 2.974
8.7602 2.807
8.7699 2.714
8.7795 2.620
8.7891 2.943
8.7987 2.786
8.8083 2.995
8.8179 2.797
8.8276 2.651
8.8372 2.635
8.8468 3.005
8.8564 2.708
8.8660 2.521
8.8756 2.719
8.8853 3.083
8.8949 2.917
8.9045 2.698
8.9141 2.807
8.9237 2.839
8.9333 2.729
8.9430 2.807
8.9526 3.109
8.9622 2.771
8.9718 2.927
8.9814 2.719
8.9911 2.885
9.0007 2.938
9.0103 2.635
9.0199 2.682
9.0295 2.776
9.0391 2.880
9.0488 2.839
9.0584 2.891
9.0680 2.990
9.0776 3.031
9.0872 2.927
9.0968 3.115
9.1065 2.969
9.1161 3.094
9.1257 3.198
9.1353 3.063
9.1449 3.318
9.1545 3.240
9.1642 3.490
9.1738 3.536
9.1834 3.474
9.1930 3.401
9.2026 3.547
9.2122 3.760
9.2219 3.797
9.2315 3.807
9.2411 3.974
9.2507 4.260
9.2603 4.411
9.2699 4.406
9.2796 4.620
9.2892 4.578
9.2988 4.865
9.3084 5.057
9.3180 5.156
9.3276 5.208
9.3373 5.563
9.3469 5.906
9.3565 6.135
9.3661 6.745
9.3757 6.807
9.3853 7.016
9.3950 7.297
9.4046 7.552
9.4142 8.042
9.4238 8.526
9.4334 8.714
9.4430 8.880
9.4527 9.630
9.4623 10.188
9.4719 10.443
9.4815 11.193
9.4911 10.854
9.5008 10.854
9.5104 11.896
9.5200 11.917
9.5296 12.083
9.5392 12.729
9.5488 13.370
9.5585 13.880
9.5681 13.865
9.5777 13.953
9.5873 14.370
9.5969 14.281
9.6065 14.042
9.6162 13.708
9.6258 12.724
9.6354 12.266
9.6450 10.786
9.6546 10.198
9.6642 9.521
9.6739 8.703
9.6835 7.552
9.6931 7.125
9.7027 6.667
9.7123 6.438
9.7219 5.974
9.7316 5.271
9.7412 5.141
9.7508 4.995
9.7604 4.693
9.7700 4.109
9.7796 4.359
9.7893 4.047
9.7989 3.927
9.8085 3.589
9.8181 3.563
9.8277 3.359
9.8373 3.229
9.8470 3.333
9.8566 3.130
9.8662 2.745
9.8758 2.969
9.8854 2.807
9.8950 2.729
9.9047 2.766
9.9143 2.505
9.9239 2.771
9.9335 2.630
9.9431 2.391
9.9527 2.474
9.9624 2.745
9.9720 2.411
9.9816 2.411
9.9912 2.521
10.0008 2.224
10.0105 2.411
10.0201 2.375
10.0297 2.255
10.0393 2.292
10.0489 2.156
10.0585 2.339
10.0682 2.073
10.0778 2.141
10.0874 2.057
10.0970 2.115
10.1066 2.005
10.1162 2.005
10.1259 2.240
10.1355 2.104
10.1451 2.115
10.1547 1.927
10.1643 2.094
10.1739 2.240
10.1836 1.948
10.1932 1.870
10.2028 1.917
10.2124 2.068
10.2220 1.927
10.2316 1.776
10.2413 1.729
10.2509 1.917
10.2605 1.823
10.2701 1.911
10.2797 1.802
10.2893 1.833
10.2990 2.234
10.3086 1.813
10.3182 1.885
10.3278 1.714
10.3374 2.052
10.3470 1.776
10.3567 1.776
10.3663 1.781
10.3759 1.786
10.3855 1.760
10.3951 1.667
10.4047 1.792
10.4144 1.635
10.4240 1.802
10.4336 1.635
10.4432 1.703
10.4528 1.693
10.4624 1.625
10.4721 1.594
10.4817 1.734
10.4913 1.714
10.5009 1.646
10.5105 1.661
10.5202 1.766
10.5298 1.672
10.5394 1.854
10.5490 1.682
10.5586 1.870
10.5682 1.786
10.5779 1.651
10.5875 1.708
10.5971 1.469
10.6067 1.479
10.6163 1.661
10.6259 1.729
10.6356 1.708
10.6452 1.604
10.6548 1.578
10.6644 1.682
10.6740 1.630
10.6836 1.698
10.6933 1.635
10.7029 1.568
10.7125 1.563
10.7221 1.563
10.7317 1.583
10.7413 1.552
10.7510 1.594
10.7606 1.542
10.7702 1.615
10.7798 1.698
10.7894 1.609
10.7990 1.516
10.8087 1.615
10.8183 1.750
10.8279 1.641
10.8375 1.583
10.8471 1.641
10.8567 1.656
10.8664 1.594
10.8760 1.490
10.8856 1.734
10.8952 1.536
10.9048 1.568
10.9144 1.448
10.9241 1.495
10.9337 1.438
10.9433 1.526
10.9529 1.500
10.9625 1.578
10.9721 1.667
10.9818 1.661
10.9914 1.516
11.0010 1.661
11.0106 1.359
11.0202 1.568
11.0299 1.656
11.0395 1.547
11.0491 1.604
11.0587 1.542
11.0683 1.568
11.0779 1.719
11.0876 1.625
11.0972 1.625
11.1068 1.479
11.1164 1.443
11.1260 1.609
11.1356 1.651
11.1453 1.568
11.1549 1.594
11.1645 1.563
11.1741 1.479
11.1837 1.526
11.1933 1.552
11.2030 1.531
11.2126 1.464
11.2222 1.510
11.2318 1.547
11.2414 1.453
11.2510 1.521
11.2607 1.526
11.2703 1.417
11.2799 1.500
11.2895 1.630
11.2991 1.458
11.3087 1.448
11.3184 1.411
11.3280 1.510
11.3376 1.563
11.3472 1.484
11.3568 1.526
11.3664 1.365
11.3761 1.422
11.3857 1.474
11.3953 1.484
11.4049 1.453
11.4145 1.500
11.4241 1.479
11.4338 1.542
11.4434 1.464
11.4530 1.385
11.4626 1.458
11.4722 1.359
11.4819 1.375
11.4915 1.427
11.5011 1.354
11.5107 1.516
11.5203 1.422
11.5299 1.594
11.5396 1.474
11.5492 1.292
11.5588 1.495
11.5684 1.297
11.5780 1.385
11.5876 1.448
11.5973 1.375
11.6069 1.505
11.6165 1.281
11.6261 1.438
11.6357 1.266
11.6453 1.375
11.6550 1.438
11.6646 1.464
11.6742 1.609
11.6838 1.417
11.6934 1.396
11.7030 1.406
11.7127 1.448
11.7223 1.375
11.7319 1.266
11.7415 1.370
11.7511 1.422
11.7607 1.432
11.7704 1.297
11.7800 1.313
11.7896 1.563
11.7992 1.391
11.8088 1.297
11.8184 1.354
11.8281 1.177
11.8377 1.417
11.8473 1.266
11.8569 1.589
11.8665 1.385
11.8761 1.339
11.8858 1.266
11.8954 1.406
11.9050 1.344
11.9146 1.328
11.9242 1.427
11.9338 1.349
11.9435 1.469
11.9531 1.313
11.9627 1.307
11.9723 1.313
11.9819 1.260
11.9916 1.271
12.0012 1.208
12.0108 1.281
12.0204 1.375
12.0300 1.339
12.0396 1.359
12.0493 1.380
12.0589 1.380
12.0685 1.370
12.0781 1.281
12.0877 1.172
12.0973 1.234
12.1070 1.344
12.1166 1.417
12.1262 1.208
12.1358 1.229
12.1454 1.266
12.1550 1.271
12.1647 1.297
12.1743 1.411
12.1839 1.234
12.1935 1.307
12.2031 1.380
12.2127 1.255
12.2224 1.260
12.2320 1.401
12.2416 1.198
12.2512 1.432
12.2608 1.271
12.2704 1.375
12.2801 1.089
12.2897 1.219
12.2993 1.245
12.3089 1.177
12.3185 1.156
12.3281 1.167
12.3378 1.417
12.3474 1.417
12.3570 1.328
12.3666 1.245
12.3762 1.276
12.3858 1.307
12.3955 1.365
12.4051 1.255
12.4147 1.286
12.4243 1.219
12.4339 1.234
12.4435 1.203
12.4532 1.255
12.4628 1.359
12.4724 1.417
12.4820 1.219
12.4916 1.229
12.5013 1.313
12.5109 1.281
12.5205 1.188
12.5301 1.344
12.5397 1.167
12.5493 1.302
12.5590 1.339
12.5686 1.234
12.5782 1.109
12.5878 1.208
12.5974 1.286
12.6070 1.146
12.6167 1.161
12.6263 1.198
12.6359 1.229
12.6455 1.115
12.6551 1.193
12.6647 1.297
12.6744 1.208
12.6840 1.297
12.6936 1.354
12.7032 1.193
12.7128 1.260
12.7224 1.375
12.7321 1.344
12.7417 1.302
12.7513 1.219
12.7609 1.292
12.7705 1.266
12.7801 1.188
12.7898 1.135
12.7994 1.219
12.8090 1.151
12.8186 1.188
12.8282 1.240
12.8378 1.167
12.8475 1.271
12.8571 1.240
12.8667 1.161
12.8763 1.401
12.8859 1.073
12.8955 1.240
12.9052 1.250
12.9148 1.297
12.9244 1.349
12.9340 1.240
12.9436 1.333
12.9532 1.271
12.9629 1.198
12.9725 1.302
12.9821 1.411
12.9917 1.109
13.0013 1.208
13.0110 1.141
13.0206 1.276
13.0302 1.151
13.0398 1.307
13.0494 1.411
13.0590 1.250
13.0687 1.323
13.0783 1.276
13.0879 1.328
13.0975 1.260
13.1071 1.281
13.1167 1.229
13.1264 1.307
13.1360 1.297
13.1456 1.219
13.1552 1.474
13.1648 1.464
13.1744 1.328
13.1841 1.401
13.1937 1.370
13.2033 1.474
13.2129 1.516
13.2225 1.495
13.2321 1.427
13.2418 1.490
13.2514 1.453
13.2610 1.359
13.2706 1.438
13.2802 1.391
13.2898 1.438
13.2995 1.516
13.3091 1.307
13.3187 1.453
13.3283 1.443
13.3379 1.495
13.3475 1.495
13.3572 1.563
13.3668 1.729
13.3764 1.776
13.3860 1.781
13.3956 1.813
13.4052 1.750
13.4149 1.922
13.4245 1.776
13.4341 1.813
13.4437 1.896
13.4533 1.906
13.4630 1.891
13.4726 1.990
13.4822 2.328
13.4918 2.266
13.5014 2.411
13.5110 2.255
13.5207 2.219
13.5303 2.411
13.5399 2.474
13.5495 2.516
13.5591 2.672
13.5687 2.948
13.5784 3.099
13.5880 3.031
13.5976 3.161
13.6072 3.177
13.6168 3.510
13.6264 3.526
13.6361 4.198
13.6457 4.109
13.6553 4.427
13.6649 4.714
13.6745 5.083
13.6841 5.255
13.6938 5.786
13.7034 5.911
13.7130 6.333
13.7226 6.651
13.7322 7.083
13.7418 7.484
13.7515 7.781
13.7611 8.469
13.7707 9.281
13.7803 8.979
13.7899 8.500
13.7995 8.724
13.8092 8.224
13.8188 7.464
13.8284 6.948
13.8380 5.938
13.8476 5.453
13.8572 5.432
13.8669 4.755
13.8765 4.542
13.8861 4.219
13.8957 4.094
13.9053 3.724
13.9149 3.495
13.9246 3.458
13.9342 3.281
13.9438 2.938
13.9534 3.099
13.9630 2.755
13.9727 2.557
13.9823 2.443
13.9919 2.422
14.0015 2.417
14.0111 2.323
14.0207 2.182
14.0304 2.438
14.0400 2.146
14.0496 2.219
14.0592 2.089
14.0688 1.849
14.0784 2.073
14.0881 1.781
14.0977 1.943
14.1073 1.823
14.1169 1.734
14.1265 1.813
14.1361 1.661
14.1458 1.729
14.1554 1.536
14.1650 1.797
14.1746 1.776
14.1842 1.458
14.1938 1.500
14.2035 1.755
14.2131 1.505
14.2227 1.594
14.2323 1.469
14.2419 1.521
14.2515 1.417
14.2612 1.568
14.2708 1.458
14.2804 1.536
14.2900 1.469
14.2996 1.432
14.3092 1.453
14.3189 1.380
14.3285 1.365
14.3381 1.250
14.3477 1.370
14.3573 1.260
14.3669 1.276
14.3766 1.458
14.3862 1.339
14.3958 1.240
14.4054 1.380
14.4150 1.260
14.4246 1.411
14.4343 1.448
14.4439 1.411
14.4535 1.297
14.4631 1.333
14.4727 1.286
14.4824 1.255
14.4920 1.359
14.5016 1.292
14.5112 1.391
14.5208 1.385
14.5304 1.286
14.5401 1.313
14.5497 1.365
14.5593 1.313
14.5689 1.375
14.5785 1.396
14.5881 1.453
14.5978 1.359
14.6074 1.365
14.6170 1.286
14.6266 1.479
14.6362 1.469
14.6458 1.250
14.6555 1.370
14.6651 1.344
14.6747 1.307
14.6843 1.380
14.6939 1.229
14.7035 1.359
14.7132 1.406
14.7228 1.391
14.7324 1.510
14.7420 1.599
14.7516 1.479
14.7612 1.563
14.7709 1.708
14.7805 1.589
14.7901 1.641
14.7997 1.693
14.8093 1.552
14.8189 1.698
14.8286 1.646
14.8382 1.771
14.8478 1.797
14.8574 1.750
14.8670 1.823
14.8766 2.010
14.8863 1.948
14.8959 1.854
14.9055 2.146
14.9151 2.276
14.9247 2.078
14.9343 2.219
14.9440 2.365
14.9536 2.479
14.9632 2.698
14.9728 2.474
14.9824 2.828
14.9921 2.932
15.0017 3.073
15.0113 3.229
15.0209 3.411
15.0305 3.932
15.0401 4.130
15.0498 4.354
15.0594 4.651
15.0690 4.953
15.0786 5.688
15.0882 5.818
15.0978 6.318
15.1075 6.964
15.1171 7.651
15.1267 8.432
15.1363 8.932
15.1459 9.552
15.1555 10.781
15.1652 11.724
15.1748 12.568
15.1844 13.755
15.1940 14.802
15.2036 16.135
15.2132 16.953
15.2229 18.349
15.2325 18.703
15.2421 18.010
15.2517 18.469
15.2613 17.141
15.2709 16.703
15.2806 15.260
15.2902 13.531
15.2998 11.839
15.3094 10.927
15.3190 9.688
15.3286 8.594
15.3383 7.333
15.3479 7.255
15.3575 6.036
15.3671 5.708
15.3767 4.964
15.3863 4.734
15.3960 4.490
15.4056 3.964
15.4152 3.938
15.4248 3.224
15.4344 3.365
15.4440 3.307
15.4537 3.016
15.4633 2.609
15.4729 2.776
15.4825 2.672
15.4921 2.344
15.5018 2.323
15.5114 2.146
15.5210 2.026
15.5306 1.953
15.5402 2.208
15.5498 1.948
15.5595 1.974
15.5691 1.734
15.5787 1.818
15.5883 1.615
15.5979 1.479
15.6075 1.760
15.6172 1.469
15.6268 1.656
15.6364 1.542
15.6460 1.458
15.6556 1.573
15.6652 1.500
15.6749 1.557
15.6845 1.417
15.6941 1.391
15.7037 1.250
15.7133 1.422
15.7229 1.385
15.7326 1.375
15.7422 1.240
15.7518 1.151
15.7614 1.359
15.7710 1.302
15.7806 1.224
15.7903 1.193
15.7999 1.281
15.8095 1.260
15.8191 1.260
15.8287 1.323
15.8383 1.344
15.8480 1.271
15.8576 1.318
15.8672 1.349
15.8768 1.229
15.8864 1.115
15.8960 1.333
15.9057 1.099
15.9153 1.297
15.9249 1.172
15.9345 1.276
15.9441 1.245
15.9538 1.307
15.9634 1.099
15.9730 1.188
15.9826 1.146
15.9922 1.224
16.0018 1.052
16.0115 1.005
16.0211 1.063
16.0307 1.120
16.0403 1.068
16.0499 1.156
16.0595 1.000
16.0692 0.922
16.0788 0.875
16.0884 1.167
16.0980 1.078
16.1076 1.052
16.1172 1.130
16.1269 1.198
16.1365 1.094
16.1461 0.922
16.1557 1.177
16.1653 1.141
16.1749 0.984
16.1846 1.057
16.1942 1.125
16.2038 1.068
16.2134 1.042
16.2230 0.979
16.2326 1.010
16.2423 1.073
16.2519 0.979
16.2615 1.146
16.2711 0.995
16.2807 1.000
16.2903 0.958
16.3000 1.068
16.3096 0.995
16.3192 1.078
16.3288 0.948
16.3384 1.068
16.3480 1.016
16.3577 0.953
16.3673 1.068
16.3769 0.917
16.3865 1.016
16.3961 0.917
16.4057 1.031
16.4154 0.958
16.4250 0.896
16.4346 1.005
16.4442 1.042
16.4538 0.880
16.4635 1.036
16.4731 0.932
16.4827 0.927
16.4923 1.010
16.5019 0.958
16.5115 1.073
16.5212 0.974
16.5308 0.927
16.5404 0.932
16.5500 0.964
16.5596 1.016
16.5692 0.865
16.5789 0.849
16.5885 1.042
16.5981 1.000
16.6077 0.948
16.6173 0.995
16.6269 0.880
16.6366 0.911
16.6462 1.057
16.6558 0.875
16.6654 0.901
16.6750 0.906
16.6846 0.906
16.6943 0.964
16.7039 0.943
16.7135 1.031
16.7231 1.057
16.7327 0.990
16.7423 0.901
16.7520 1.068
16.7616 0.995
16.7712 1.000
16.7808 0.844
16.7904 1.005
16.8000 0.932
16.8097 0.969
16.8193 0.875
16.8289 0.880
16.8385 0.964
16.8481 0.875
16.8577 0.849
16.8674 0.969
16.8770 1.042
16.8866 0.896
16.8962 0.891
16.9058 0.932
16.9154 0.771
16.9251 0.943
16.9347 0.901
16.9443 0.870
16.9539 0.901
16.9635 0.906
16.9732 0.839
16.9828 1.016
16.9924 0.896
17.0020 0.854
17.0116 0.870
17.0212 0.875
17.0309 0.932
17.0405 0.781
17.0501 0.906
17.0597 0.839
17.0693 0.932
17.0789 0.813
17.0886 0.818
17.0982 0.906
17.1078 1.005
17.1174 1.026
17.1270 0.771
17.1366 0.943
17.1463 0.896
17.1559 0.906
17.1655 0.964
17.1751 0.786
17.1847 0.896
17.1943 0.906
17.2040 0.885
17.2136 0.807
17.2232 0.833
17.2328 0.844
17.2424 0.911
17.2520 0.849
17.2617 0.828
17.2713 0.901
17.2809 0.839
17.2905 0.896
17.3001 0.990
17.3097 0.797
17.3194 1.036
17.3290 0.901
17.3386 0.943
17.3482 0.901
17.3578 0.880
17.3674 0.865
17.3771 0.828
17.3867 0.818
17.3963 0.880
17.4059 0.891
17.4155 0.974
17.4251 0.844
17.4348 0.849
17.4444 0.771
17.4540 0.854
17.4636 0.917
17.4732 0.813
17.4829 0.891
17.4925 0.891
17.5021 0.745
17.5117 0.844
17.5213 0.823
17.5309 0.854
17.5406 0.948
17.5502 0.839
17.5598 0.849
17.5694 0.854
17.5790 0.802
17.5886 0.797
17.5983 0.760
17.6079 0.859
17.6175 0.844
17.6271 0.646
17.6367 0.755
17.6463 1.010
17.6560 0.766
17.6656 0.797
17.6752 0.792
17.6848 1.016
17.6944 0.854
17.7040 0.891
17.7137 0.797
17.7233 0.740
17.7329 0.802
17.7425 0.906
17.7521 0.802
17.7617 0.766
17.7714 0.870
17.7810 0.802
17.7906 0.792
17.8002 0.802
17.8098 0.771
17.8194 1.010
17.8291 0.776
17.8387 0.745
17.8483 0.750
17.8579 0.906
17.8675 0.818
17.8771 0.854
17.8868 0.740
17.8964 0.786
17.9060 0.714
17.9156 0.776
17.9252 0.880
17.9348 0.844
17.9445 0.760
17.9541 0.766
17.9637 0.969
17.9733 0.839
17.9829 0.766
17.9926 0.755
18.0022 0.849
18.0118 0.781
18.0214 0.870
18.0310 0.719
18.0406 0.781
18.0503 0.813
18.0599 0.792
18.0695 0.750
18.0791 0.839
18.0887 1.000
18.0983 0.797
18.1080 0.854
18.1176 0.755
18.1272 0.854
18.1368 0.729
18.1464 0.854
18.1560 0.849
18.1657 0.844
18.1753 0.667
18.1849 0.927
18.1945 0.792
18.2041 0.859
18.2137 0.755
18.2234 0.760
18.2330 0.781
18.2426 0.911
18.2522 0.771
18.2618 0.802
18.2714 0.901
18.2811 0.708
18.2907 0.766
18.3003 0.854
18.3099 0.771
18.3195 0.786
18.3291 0.828
18.3388 0.771
18.3484 0.839
18.3580 0.797
18.3676 0.734
18.3772 0.828
18.3868 0.734
18.3965 0.818
18.4061 0.807
18.4157 0.901
18.4253 0.802
18.4349 0.802
18.4446 0.766
18.4542 0.849
18.4638 0.708
18.4734 0.906
18.4830 0.828
18.4926 0.807
18.5023 0.906
18.5119 0.823
18.5215 0.849
18.5311 0.901
18.5407 0.865
18.5503 0.870
18.5600 0.849
18.5696 0.776
18.5792 0.927
18.5888 0.766
18.5984 0.698
18.6080 0.906
18.6177 0.792
18.6273 0.870
18.6369 0.833
18.6465 0.781
18.6561 0.891
18.6657 0.833
18.6754 0.792
18.6850 0.828
18.6946 0.964
18.7042 0.760
18.7138 0.870
18.7234 0.865
18.7331 0.964
18.7427 0.818
18.7523 0.870
18.7619 0.844
18.7715 0.880
18.7811 0.766
18.7908 0.885
18.8004 0.911
18.8100 0.917
18.8196 0.760
18.8292 0.776
18.8388 0.828
18.8485 0.849
18.8581 0.802
18.8677 0.932
18.8773 0.828
18.8869 0.865
18.8965 0.880
18.9062 0.917
18.9158 0.984
18.9254 0.911
18.9350 0.969
18.9446 0.964
18.9543 0.979
18.9639 1.036
18.9735 0.891
18.9831 1.036
18.9927 1.135
19.0023 0.990
19.0120 0.917
19.0216 0.844
19.0312 1.063
19.0408 0.953
19.0504 1.005
19.0600 1.219
19.0697 1.005
19.0793 1.073
19.0889 1.047
19.0985 1.146
19.1081 1.193
19.1177 1.141
19.1274 1.188
19.1370 1.219
19.1466 1.250
19.1562 1.281
19.1658 1.385
19.1754 1.641
19.1851 1.417
19.1947 1.589
19.2043 1.594
19.2139 1.635
19.2235 1.656
19.2331 1.760
19.2428 1.734
19.2524 1.802
19.2620 1.833
19.2716 1.984
19.2812 1.922
19.2908 1.932
19.3005 1.807
19.3101 1.964
19.3197 1.896
19.3293 1.844
19.3389 1.927
19.3485 1.604
19.3582 1.505
19.3678 1.615
19.3774 1.359
19.3870 1.396
19.3966 1.219
19.4062 1.167
19.4159 1.297
19.4255 1.141
19.4351 1.036
19.4447 1.089
19.4543 1.224
19.4640 1.063
19.4736 1.083
19.4832 1.010
19.4928 1.031
19.5024 1.115
19.5120 0.932
19.5217 0.948
19.5313 0.818
19.5409 0.896
19.5505 0.984
19.5601 0.984
19.5697 0.979
19.5794 1.016
19.5890 0.870
19.5986 1.125
19.6082 0.953
19.6178 1.057
19.6274 1.115
19.6371 1.005
19.6467 1.271
19.6563 1.276
19.6659 1.161
19.6755 1.344
19.6851 1.542
19.6948 1.432
19.7044 1.396
19.7140 1.526
19.7236 1.719
19.7332 1.911
19.7428 1.807
19.7525 2.135
19.7621 2.104
19.7717 2.536
19.7813 2.219
19.7909 2.568
19.8005 2.396
19.8102 2.484
19.8198 2.568
19.8294 2.422
19.8390 2.344
19.8486 2.177
19.8582 2.089
19.8679 2.016
19.8775 1.990
19.8871 1.875
19.8967 1.656
19.9063 1.865
19.9159 1.724
19.9256 1.547
19.9352 1.583
19.9448 1.391
19.9544 1.391
19.9640 1.281
19.9737 1.219
19.9833 1.354
19.9929 1.042
20.0025 1.120
20.0121 1.219
20.0217 1.057
20.0314 1.021
20.0410 0.990
20.0506 1.057
20.0602 0.880
20.0698 0.906
20.0794 0.797
20.0891 0.880
20.0987 0.938
20.1083 0.724
20.1179 0.854
20.1275 0.818
20.1371 0.828
20.1468 0.870
20.1564 0.880
20.1660 0.724
20.1756 0.854
20.1852 0.781
20.1948 0.854
20.2045 0.755
20.2141 0.786
20.2237 0.682
20.2333 0.714
20.2429 0.849
20.2525 0.839
20.2622 0.724
20.2718 0.776
20.2814 0.745
20.2910 0.766
20.3006 0.682
20.3102 0.786
20.3199 0.786
20.3295 0.755
20.3391 0.745
20.3487 0.724
20.3583 0.776
20.3679 0.818
20.3776 0.755
20.3872 0.740
20.3968 0.724
20.4064 0.781
20.4160 0.755
20.4256 0.740
20.4353 0.708
20.4449 0.724
20.4545 0.802
20.4641 0.635
20.4737 0.740
20.4834 0.802
20.4930 0.672
20.5026 0.734
20.5122 0.740
20.5218 0.703
20.5314 0.750
20.5411 0.880
20.5507 0.734
20.5603 0.818
20.5699 0.719
20.5795 0.760
20.5891 0.719
20.5988 0.849
20.6084 0.698
20.6180 0.745
20.6276 0.750
20.6372 0.786
20.6468 0.823
20.6565 0.734
20.6661 0.745
20.6757 0.776
20.6853 0.839
20.6949 0.818
20.7045 0.802
20.7142 0.854
20.7238 0.745
20.7334 0.802
20.7430 0.802
20.7526 0.880
20.7622 0.771
20.7719 0.870
20.7815 0.891
20.7911 0.917
20.8007 0.865
20.8103 0.984
20.8199 0.896
20.8296 0.990
20.8392 0.964
20.8488 0.943
20.8584 0.990
20.8680 1.031
20.8776 1.094
20.8873 0.964
20.8969 1.000
20.9065 1.026
20.9161 1.021
20.9257 1.240
20.9354 1.094
20.9450 1.005
20.9546 1.099
20.9642 1.104
20.9738 1.104
20.9834 1.188
20.9931 1.464
21.0027 1.411
21.0123 1.698
21.0219 1.620
21.0315 1.526
21.0411 1.911
21.0508 1.771
21.0604 2.130
21.0700 2.240
21.0796 2.333
21.0892 2.984
21.0988 2.948
21.1085 3.422
21.1181 3.469
21.1277 4.000
21.1373 4.557
21.1469 4.698
21.1565 5.240
21.1662 5.276
21.1758 5.344
21.1854 5.318
21.1950 5.391
21.2046 5.281
21.2142 5.104
21.2239 4.740
21.2335 4.365
21.2431 3.740
21.2527 3.536
21.2623 3.365
21.2719 2.938
21.2816 2.578
21.2912 2.109
21.3008 1.901
21.3104 1.781
21.3200 1.750
21.3296 1.568
21.3393 1.479
21.3489 1.406
21.3585 1.422
21.3681 1.193
21.3777 1.370
21.3873 1.198
21.3970 1.391
21.4066 1.333
21.4162 1.099
21.4258 1.141
21.4354 1.286
21.4451 1.224
21.4547 1.198
21.4643 1.188
21.4739 1.047
21.4835 1.391
21.4931 1.417
21.5028 1.219
21.5124 1.380
21.5220 1.302
21.5316 1.406
21.5412 1.323
21.5508 1.359
21.5605 1.630
21.5701 1.536
21.5797 1.552
21.5893 1.630
21.5989 1.714
21.6085 1.750
21.6182 1.766
21.6278 1.854
21.6374 2.125
21.6470 2.083
21.6566 2.224
21.6662 2.083
21.6759 2.380
21.6855 2.333
21.6951 2.484
21.7047 2.568
21.7143 2.068
21.7239 2.500
21.7336 2.281
21.7432 2.109
21.7528 2.146
21.7624 2.052
21.7720 1.953
21.7816 1.938
21.7913 1.917
21.8009 1.755
21.8105 1.646
21.8201 1.552
21.8297 1.526
21.8393 1.620
21.8490 1.479
21.8586 1.578
21.8682 1.286
21.8778 1.328
21.8874 1.349
21.8970 1.411
21.9067 1.464
21.9163 1.375
21.9259 1.385
21.9355 1.589
21.9451 1.328
21.9548 1.411
21.9644 1.396
21.9740 1.589
21.9836 1.453
21.9932 1.453
22.0028 1.672
22.0125 1.703
22.0221 1.693
22.0317 1.625
22.0413 1.828
22.0509 1.807
22.0605 1.677
22.0702 1.656
22.0798 1.682
22.0894 1.635
22.0990 1.667
22.1086 1.365
22.1182 1.484
22.1279 1.318
22.1375 1.359
22.1471 1.260
22.1567 1.276
22.1663 1.047
22.1759 1.193
22.1856 1.016
22.1952 1.094
22.2048 0.974
22.2144 0.901
22.2240 1.031
22.2336 0.964
22.2433 0.984
22.2529 1.042
22.2625 0.911
22.2721 1.005
22.2817 0.958
22.2913 0.917
22.3010 0.859
22.3106 0.760
22.3202 0.792
22.3298 0.724
22.3394 0.792
22.3490 0.849
22.3587 0.698
22.3683 0.745
22.3779 0.917
22.3875 0.833
22.3971 0.729
22.4067 0.708
22.4164 0.729
22.4260 0.792
22.4356 0.682
22.4452 0.635
22.4548 0.823
22.4645 0.688
22.4741 0.802
22.4837 0.813
22.4933 0.745
22.5029 0.776
22.5125 0.661
22.5222 0.734
22.5318 0.766
22.5414 0.745
22.5510 0.703
22.5606 0.651
22.5702 0.651
22.5799 0.677
22.5895 0.661
22.5991 0.813
22.6087 0.698
22.6183 0.786
22.6279 0.802
22.6376 0.792
22.6472 0.802
22.6568 0.771
22.6664 0.807
22.6760 0.651
22.6856 0.724
22.6953 0.682
22.7049 0.823
22.7145 0.891
22.7241 0.797
22.7337 0.745
22.7433 0.604
22.7530 0.609
22.7626 0.750
22.7722 0.740
22.7818 0.609
22.7914 0.635
22.8010 0.875
22.8107 0.760
22.8203 0.745
22.8299 0.849
22.8395 0.677
22.8491 0.896
22.8587 0.781
22.8684 0.797
22.8780 0.833
22.8876 0.807
22.8972 0.911
22.9068 0.776
22.9164 0.729
22.9261 0.807
22.9357 0.938
22.9453 0.891
22.9549 1.000
22.9645 0.844
22.9742 0.865
22.9838 0.745
22.9934 0.870
23.0030 0.818
23.0126 0.995
23.0222 1.052
23.0319 1.047
23.0415 0.990
23.0511 0.974
23.0607 1.010
23.0703 1.000
23.0799 0.932
23.0896 1.115
23.0992 0.995
23.1088 1.000
23.1184 1.115
23.1280 0.995
23.1376 1.120
23.1473 1.104
23.1569 1.063
23.1665 1.188
23.1761 1.318
23.1857 1.250
23.1953 1.380
23.2050 1.307
23.2146 1.536
23.2242 1.411
23.2338 1.563
23.2434 1.490
23.2530 1.656
23.2627 1.656
23.2723 1.729
23.2819 2.021
23.2915 2.042
23.3011 1.974
23.3107 1.948
23.3204 2.161
23.3300 2.036
23.3396 1.641
23.3492 1.911
23.3588 1.688
23.3684 1.740
23.3781 1.667
23.3877 1.630
23.3973 1.531
23.4069 1.484
23.4165 1.406
23.4262 1.344
23.4358 1.354
23.4454 1.359
23.4550 1.094
23.4646 1.078
23.4742 1.042
23.4839 1.000
23.4935 0.844
23.5031 1.000
23.5127 0.865
23.5223 0.901
23.5319 0.875
23.5416 0.906
23.5512 0.818
23.5608 0.859
23.5704 0.865
23.5800 0.698
23.5896 0.677
23.5993 0.833
23.6089 0.786
23.6185 0.682
23.6281 0.625
23.6377 0.677
23.6473 0.771
23.6570 0.771
23.6666 0.599
23.6762 0.667
23.6858 0.688
23.6954 0.594
23.7050 0.688
23.7147 0.734
23.7243 0.755
23.7339 0.625
23.7435 0.646
23.7531 0.604
23.7627 0.698
23.7724 0.677
23.7820 0.682
23.7916 0.750
23.8012 0.656
23.8108 0.625
23.8204 0.604
23.8301 0.682
23.8397 0.641
23.8493 0.604
23.8589 0.651
23.8685 0.682
23.8781 0.656
23.8878 0.563
23.8974 0.745
23.9070 0.682
23.9166 0.646
23.9262 0.677
23.9359 0.630
23.9455 0.667
23.9551 0.646
23.9647 0.573
23.9743 0.620
23.9839 0.594
23.9936 0.651
24.0032 0.667
24.0128 0.635
24.0224 0.734
24.0320 0.589
24.0416 0.547
24.0513 0.766
24.0609 0.703
24.0705 0.667
24.0801 0.630
24.0897 0.594
24.0993 0.604
24.1090 0.688
24.1186 0.625
24.1282 0.594
24.1378 0.615
24.1474 0.682
24.1570 0.604
24.1667 0.547
24.1763 0.573
24.1859 0.521
24.1955 0.615
24.2051 0.620
24.2147 0.688
24.2244 0.667
24.2340 0.526
24.2436 0.698
24.2532 0.599
24.2628 0.661
24.2724 0.599
24.2821 0.563
24.2917 0.677
24.3013 0.599
24.3109 0.521
24.3205 0.583
24.3301 0.604
24.3398 0.620
24.3494 0.677
24.3590 0.630
24.3686 0.531
24.3782 0.547
24.3878 0.615
24.3975 0.604
24.4071 0.688
24.4167 0.521
24.4263 0.573
24.4359 0.656
24.4456 0.526
24.4552 0.620
24.4648 0.625
24.4744 0.703
24.4840 0.516
24.4936 0.563
24.5033 0.531
24.5129 0.510
24.5225 0.635
24.5321 0.594
24.5417 0.620
24.5513 0.646
24.5610 0.568
24.5706 0.583
24.5802 0.615
24.5898 0.688
24.5994 0.583
24.6090 0.688
24.6187 0.604
24.6283 0.760
24.6379 0.609
24.6475 0.599
24.6571 0.568
24.6667 0.536
24.6764 0.682
24.6860 0.604
24.6956 0.620
24.7052 0.641
24.7148 0.490
24.7244 0.615
24.7341 0.583
24.7437 0.583
24.7533 0.625
24.7629 0.625
24.7725 0.646
24.7821 0.682
24.7918 0.625
24.8014 0.542
24.8110 0.620
24.8206 0.635
24.8302 0.583
24.8398 0.651
24.8495 0.557
24.8591 0.646
24.8687 0.615
24.8783 0.604
24.8879 0.620
24.8975 0.615
24.9072 0.667
24.9168 0.625
24.9264 0.656
24.9360 0.599
24.9456 0.682
24.9553 0.583
24.9649 0.630
24.9745 0.599
24.9841 0.641
24.9937 0.693
25.0033 0.740
25.0130 0.708
25.0226 0.823
25.0322 0.729
25.0418 0.625
25.0514 0.688
25.0610 0.724
25.0707 0.698
25.0803 0.641
25.0899 0.786
25.0995 0.766
25.1091 0.781
25.1187 0.750
25.1284 0.786
25.1380 0.781
25.1476 0.760
25.1572 0.849
25.1668 0.693
25.1764 0.859
25.1861 0.948
25.1957 0.875
25.2053 0.943
25.2149 1.036
25.2245 1.031
25.2341 1.130
25.2438 1.068
25.2534 1.234
25.2630 1.240
25.2726 1.245
25.2822 1.375
25.2918 1.396
25.3015 1.411
25.3111 1.469
25.3207 1.719
25.3303 1.641
25.3399 1.760
25.3495 1.880
25.3592 2.078
25.3688 2.063
25.3784 2.099
25.3880 2.094
25.3976 1.969
25.4073 2.177
25.4169 2.297
25.4265 2.036
25.4361 1.911
25.4457 1.802
25.4553 1.781
25.4650 1.693
25.4746 1.573
25.4842 1.583
25.4938 1.448
25.5034 1.505
25.5130 1.156
25.5227 1.214
25.5323 1.047
25.5419 0.943
25.5515 0.964
25.5611 0.979
25.5707 1.063
25.5804 0.833
25.5900 0.703
25.5996 0.880
25.6092 0.932
25.6188 0.760
25.6284 0.786
25.6381 0.766
25.6477 0.786
25.6573 0.740
25.6669 0.807
25.6765 0.677
25.6861 0.672
25.6958 0.635
25.7054 0.688
25.7150 0.693
25.7246 0.667
25.7342 0.719
25.7438 0.750
25.7535 0.703
25.7631 0.771
25.7727 0.781
25.7823 0.651
25.7919 0.708
25.8015 0.682
25.8112 0.620
25.8208 0.682
25.8304 0.656
25.8400 0.745
25.8496 0.568
25.8592 0.625
25.8689 0.682
25.8785 0.625
25.8881 0.703
25.8977 0.630
25.9073 0.745
25.9170 0.672
25.9266 0.667
25.9362 0.641
25.9458 0.750
25.9554 0.755
25.9650 0.672
25.9747 0.646
25.9843 0.661
25.9939 0.635
26.0035 0.641
26.0131 0.682
26.0227 0.828
26.0324 0.740
26.0420 0.703
26.0516 0.792
26.0612 0.755
26.0708 0.797
26.0804 0.755
26.0901 0.927
26.0997 0.807
26.1093 0.896
26.1189 1.078
26.1285 1.203
26.1381 1.240
26.1478 1.276
26.1574 1.328
26.1670 1.406
26.1766 1.589
26.1862 1.422
26.1958 1.641
26.2055 1.505
26.2151 1.135
26.2247 1.276
26.2343 1.094
26.2439 1.161
26.2535 1.047
26.2632 1.000
26.2728 1.052
26.2824 0.995
26.2920 0.906
26.3016 0.849
26.3112 0.865
26.3209 0.745
26.3305 0.849
26.3401 0.740
26.3497 0.870
26.3593 0.844
26.3689 0.807
26.3786 0.661
26.3882 0.745
26.3978 0.870
26.4074 0.802
26.4170 0.708
26.4267 0.755
26.4363 0.818
26.4459 0.807
26.4555 0.766
26.4651 1.026
26.4747 1.021
26.4844 0.927
26.4940 1.010
26.5036 0.990
26.5132 1.120
26.5228 1.120
26.5324 1.104
26.5421 1.229
26.5517 1.276
26.5613 1.255
26.5709 1.557
26.5805 1.411
26.5901 1.443
26.5998 1.599
26.6094 1.594
26.6190 1.766
26.6286 1.880
26.6382 1.807
26.6478 1.781
26.6575 1.953
26.6671 1.969
26.6767 1.688
26.6863 1.932
26.6959 2.052
26.7055 2.208
26.7152 2.234
26.7248 2.318
26.7344 2.411
26.7440 2.604
26.7536 2.615
26.7632 2.688
26.7729 3.224
26.7825 3.365
26.7921 3.547
26.8017 3.911
26.8113 3.813
26.8209 4.208
26.8306 3.875
26.8402 4.010
26.8498 3.891
26.8594 4.010
26.8690 3.589
26.8786 3.771
26.8883 3.385
26.8979 3.297
26.9075 3.177
26.9171 3.276
26.9267 2.755
26.9364 2.542
26.9460 2.505
26.9556 2.292
26.9652 2.302
26.9748 2.214
26.9844 2.026
26.9941 1.917
27.0037 1.849
27.0133 1.510
27.0229 1.615
27.0325 1.625
27.0421 1.589
27.0518 1.599
27.0614 1.604
27.0710 1.443
27.0806 1.448
27.0902 1.500
27.0998 1.500
27.1095 1.479
27.1191 1.344
27.1287 1.479
27.1383 1.313
27.1479 1.255
27.1575 1.297
27.1672 1.432
27.1768 1.401
27.1864 1.568
27.1960 1.615
27.2056 1.641
27.2152 1.755
27.2249 1.531
27.2345 1.443
27.2441 1.438
27.2537 1.302
27.2633 1.349
27.2729 1.245
27.2826 1.167
27.2922 1.063
27.3018 1.172
27.3114 1.104
27.3210 1.099
27.3306 0.917
27.3403 0.979
27.3499 1.047
27.3595 0.995
27.3691 1.021
27.3787 1.031
27.3883 0.969
27.3980 0.922
27.4076 1.057
27.4172 1.172
27.4268 1.099
27.4364 0.922
27.4461 0.932
27.4557 1.078
27.4653 1.161
27.4749 1.021
27.4845 0.948
27.4941 1.193
27.5038 1.214
27.5134 1.115
27.5230 1.005
27.5326 1.031
27.5422 1.104
27.5518 1.099
27.5615 1.266
27.5711 1.167
27.5807 1.219
27.5903 1.224
27.5999 1.307
27.6095 1.484
27.6192 1.135
27.6288 1.417
27.6384 1.438
27.6480 1.604
27.6576 1.656
27.6672 1.698
27.6769 1.729
27.6865 1.724
27.6961 1.943
27.7057 2.161
27.7153 2.219
27.7249 2.297
27.7346 2.448
27.7442 2.599
27.7538 2.609
27.7634 2.734
27.7730 2.766
27.7826 2.786
27.7923 2.964
27.8019 2.964
27.8115 2.516
27.8211 2.552
27.8307 2.599
27.8403 2.453
27.8500 2.193
27.8596 2.224
27.8692 2.177
27.8788 2.104
27.8884 2.151
27.8981 2.089
27.9077 1.906
27.9173 1.797
27.9269 1.698
27.9365 1.698
27.9461 1.786
27.9558 1.599
27.9654 1.807
27.9750 1.708
27.9846 1.823
27.9942 1.646
28.0038 1.651
28.0135 1.609
28.0231 1.625
28.0327 1.703
28.0423 1.677
28.0519 1.750
28.0615 1.865
28.0712 1.745
28.0808 1.917
28.0904 1.922
28.1000 1.979
28.1096 2.021
28.1192 1.901
28.1289 2.073
28.1385 2.130
28.1481 2.318
28.1577 2.547
28.1673 2.276
28.1769 2.432
28.1866 2.479
28.1962 2.719
28.2058 2.943
28.2154 2.938
28.2250 3.313
28.2346 3.370
28.2443 3.130
28.2539 3.938
28.2635 3.599
28.2731 3.630
28.2827 3.443
28.2923 3.974
28.3020 3.630
28.3116 3.495
28.3212 3.714
28.3308 3.104
28.3404 3.255
28.3500 3.151
28.3597 3.182
28.3693 2.896
28.3789 2.516
28.3885 2.682
28.3981 2.589
28.4078 2.333
28.4174 2.370
28.4270 2.266
28.4366 2.063
28.4462 1.969
28.4558 1.974
28.4655 1.802
28.4751 1.911
28.4847 1.880
28.4943 1.750
28.5039 1.880
28.5135 1.823
28.5232 1.620
28.5328 1.682
28.5424 1.760
28.5520 1.781
28.5616 1.698
28.5712 1.885
28.5809 1.922
28.5905 1.740
28.6001 1.917
28.6097 2.010
28.6193 1.922
28.6289 1.911
28.6386 2.099
28.6482 2.026
28.6578 2.109
28.6674 1.964
28.6770 2.120
28.6866 2.297
28.6963 2.109
28.7059 2.328
28.7155 2.411
28.7251 2.156
28.7347 2.214
28.7443 2.396
28.7540 2.568
28.7636 2.641
28.7732 2.568
28.7828 2.745
28.7924 2.365
28.8020 2.453
28.8117 2.500
28.8213 2.531
28.8309 2.547
28.8405 2.661
28.8501 2.495
28.8597 2.411
28.8694 2.313
28.8790 2.255
28.8886 2.245
28.8982 2.182
28.9078 1.969
28.9175 2.021
28.9271 2.203
28.9367 1.885
28.9463 1.740
28.9559 1.740
28.9655 1.724
28.9752 1.766
28.9848 1.729
28.9944 1.688
29.0040 1.583
29.0136 1.536
29.0232 1.542
29.0329 1.578
29.0425 1.568
29.0521 1.635
29.0617 1.594
29.0713 1.667
29.0809 1.661
29.0906 1.427
29.1002 1.583
29.1098 1.609
29.1194 1.500
29.1290 1.630
29.1386 1.615
29.1483 1.677
29.1579 1.641
29.1675 1.453
29.1771 1.458
29.1867 1.552
29.1963 1.391
29.2060 1.328
29.2156 1.380
29.2252 1.339
29.2348 1.167
29.2444 1.307
29.2540 1.281
29.2637 1.354
29.2733 1.286
29.2829 1.188
29.2925 0.995
29.3021 1.203
29.3117 1.344
29.3214 1.255
29.3310 1.177
29.3406 1.344
29.3502 1.411
29.3598 1.229
29.3694 1.318
29.3791 1.266
29.3887 1.302
29.3983 1.359
29.4079 1.411
29.4175 1.182
29.4272 1.182
29.4368 1.354
29.4464 1.172
29.4560 1.245
29.4656 1.318
29.4752 1.068
29.4849 1.245
29.4945 1.109
29.5041 1.109
29.5137 1.198
29.5233 1.042
29.5329 0.891
29.5426 1.057
29.5522 1.005
29.5618 0.927
29.5714 0.885
29.5810 0.901
29.5906 0.839
29.6003 0.911
29.6099 1.026
29.6195 0.760
29.6291 0.870
29.6387 0.813
29.6483 0.839
29.6580 0.943
29.6676 0.891
29.6772 0.755
29.6868 0.828
29.6964 0.865
29.7060 0.891
29.7157 0.870
29.7253 0.870
29.7349 0.833
29.7445 0.870
29.7541 0.870
29.7637 0.891
29.7734 0.844
29.7830 0.875
29.7926 0.932
29.8022 0.776
29.8118 0.854
29.8214 0.927
29.8311 0.766
29.8407 0.896
29.8503 0.875
29.8599 0.833
29.8695 0.969
29.8791 0.901
29.8888 0.766
29.8984 0.880
29.9080 0.974
29.9176 0.807
29.9272 0.953
29.9369 0.885
29.9465 0.948
29.9561 0.896
29.9657 0.922
29.9753 0.922
29.9849 1.057
29.9946 1.047
30.0042 0.875
30.0138 0.964
30.0234 0.865
30.0330 0.828
30.0426 0.995
30.0523 0.938
30.0619 0.932
30.0715 0.969
30.0811 1.042
30.0907 0.906
30.1003 1.146
30.1100 0.969
30.1196 0.958
30.1292 1.083
30.1388 1.078
30.1484 1.026
30.1580 0.875
30.1677 1.094
30.1773 1.057
30.1869 1.208
30.1965 1.109
30.2061 1.104
30.2157 1.099
30.2254 1.271
30.2350 1.240
30.2446 1.115
30.2542 1.276
30.2638 1.172
30.2734 1.219
30.2831 1.547
30.2927 1.516
30.3023 1.510
30.3119 1.484
30.3215 1.458
30.3311 1.531
30.3408 1.635
30.3504 1.849
30.3600 1.797
30.3696 1.792
30.3792 1.750
30.3889 1.870
30.3985 2.057
30.4081 2.104
30.4177 2.271
30.4273 2.224
30.4369 2.219
30.4466 2.536
30.4562 2.599
30.4658 2.990
30.4754 2.740
30.4850 2.927
30.4946 2.958
30.5043 3.255
30.5139 3.255
30.5235 3.531
30.5331 3.641
30.5427 4.031
30.5523 3.927
30.5620 4.286
30.5716 4.490
30.5812 4.740
30.5908 4.552
30.6004 5.385
30.6100 5.010
30.6197 5.255
30.6293 5.776
30.6389 6.188
30.6485 6.370
30.6581 6.833
30.6677 7.474
30.6774 7.786
30.6870 8.432
30.6966 8.693
30.7062 9.615
30.7158 9.917
30.7254 10.432
30.7351 11.167
30.7447 11.458
30.7543 11.854
30.7639 12.651
30.7735 12.323
30.7831 12.115
30.7928 12.453
30.8024 12.229
30.8120 12.047
30.8216 11.500
30.8312 11.531
30.8408 10.542
30.8505 10.453
30.8601 9.510
30.8697 9.193
30.8793 8.224
30.8889 8.167
30.8986 7.146
30.9082 6.854
30.9178 6.344
30.9274 5.552
30.9370 5.734
30.9466 4.896
30.9563 4.599
30.9659 4.422
30.9755 4.063
30.9851 4.057
30.9947 3.724
31.0043 3.479
31.0140 3.156
31.0236 3.198
31.0332 2.891
31.0428 2.786
31.0524 2.677
31.0620 2.609
31.0717 2.438
31.0813 2.177
31.0909 2.229
31.1005 1.854
31.1101 2.005
31.1197 1.833
31.1294 1.938
31.1390 1.688
31.1486 1.776
31.1582 1.776
31.1678 1.698
31.1774 1.516
31.1871 1.672
31.1967 1.443
31.2063 1.547
31.2159 1.422
31.2255 1.365
31.2351 1.438
31.2448 1.411
31.2544 1.479
31.2640 1.370
31.2736 1.359
31.2832 1.307
31.2928 1.448
31.3025 1.255
31.3121 1.245
31.3217 1.411
31.3313 1.281
31.3409 1.354
31.3505 1.260
31.3602 1.250
31.3698 1.370
31.3794 1.250
31.3890 1.344
31.3986 1.458
31.4083 1.500
31.4179 1.380
31.4275 1.474
31.4371 1.453
31.4467 1.583
31.4563 1.443
31.4660 1.458
31.4756 1.453
31.4852 1.479
31.4948 1.479
31.5044 1.427
31.5140 1.422
31.5237 1.500
31.5333 1.313
31.5429 1.276
31.5525 1.328
31.5621 1.438
31.5717 1.214
31.5814 1.255
31.5910 1.292
31.6006 1.245
31.6102 1.141
31.6198 1.031
31.6294 1.172
31.6391 1.047
31.6487 1.089
31.6583 1.010
31.6679 0.901
31.6775 1.047
31.6871 1.042
31.6968 0.984
31.7064 0.891
31.7160 1.099
31.7256 0.979
31.7352 0.917
31.7448 1.073
31.7545 1.031
31.7641 0.849
31.7737 0.740
31.7833 0.922
31.7929 0.875
31.8025 0.807
31.8122 0.833
31.8218 0.771
31.8314 0.844
31.8410 0.891
31.8506 0.865
31.8602 0.958
31.8699 0.792
31.8795 0.760
31.8891 0.880
31.8987 0.901
31.9083 0.771
31.9180 1.026
31.9276 0.813
31.9372 0.875
31.9468 0.823
31.9564 0.865
31.9660 0.818
31.9757 0.766
31.9853 0.828
31.9949 0.859
32.0045 0.792
32.0141 0.833
32.0237 0.849
32.0334 0.984
32.0430 1.000
32.0526 0.885
32.0622 0.911
32.0718 1.083
32.0814 0.917
32.0911 1.057
32.1007 1.042
32.1103 0.917
32.1199 1.073
32.1295 1.214
32.1391 1.182
32.1488 1.193
32.1584 1.260
32.1680 1.396
32.1776 1.193
32.1872 1.380
32.1968 1.146
32.2065 1.172
32.2161 1.292
32.2257 1.224
32.2353 1.260
32.2449 1.219
32.2545 1.188
32.2642 1.151
32.2738 1.182
32.2834 1.266
32.2930 1.094
32.3026 1.146
32.3122 1.125
32.3219 1.219
32.3315 1.063
32.3411 1.161
32.3507 1.156
32.3603 0.927
32.3699 1.083
32.3796 1.177
32.3892 1.130
32.3988 1.078
32.4084 0.984
32.4180 1.031
32.4277 1.177
32.4373 1.151
32.4469 1.161
32.4565 1.010
32.4661 1.016
32.4757 1.135
32.4854 1.161
32.4950 1.042
32.5046 1.182
32.5142 1.219
32.5238 1.349
32.5334 1.385
32.5431 1.349
32.5527 1.401
32.5623 1.599
32.5719 1.839
32.5815 1.984
32.5911 2.500
32.6008 2.901
32.6104 2.922
32.6200 2.870
32.6296 2.672
32.6392 2.385
32.6488 2.224
32.6585 2.208
32.6681 2.203
32.6777 1.932
32.6873 2.047
32.6969 2.005
32.7065 2.000
32.7162 1.745
32.7258 1.641
32.7354 1.458
32.7450 1.344
32.7546 1.161
32.7642 1.198
32.7739 0.979
32.7835 1.010
32.7931 1.099
32.8027 0.995
32.8123 0.958
32.8219 1.005
32.8316 1.026
32.8412 1.010
32.8508 1.167
32.8604 0.990
32.8700 1.099
32.8797 1.104
32.8893 1.156
32.8989 1.219
32.9085 1.172
32.9181 1.281
32.9277 1.266
32.9374 1.219
32.9470 1.318
32.9566 1.323
32.9662 1.453
32.9758 1.500
32.9854 1.490
32.9951 1.500
33.0047 1.573
33.0143 1.734
33.0239 1.729
33.0335 1.828
33.0431 1.911
33.0528 2.130
33.0624 2.307
33.0720 2.182
33.0816 2.260
33.0912 2.328
33.1008 2.573
33.1105 2.813
33.1201 2.630
33.1297 2.964
33.1393 2.729
33.1489 2.755
33.1585 3.229
33.1682 3.484
33.1778 3.354
33.1874 3.688
33.1970 3.714
33.2066 4.208
33.2162 4.161
33.2259 3.990
33.2355 4.078
33.2451 4.036
33.2547 4.141
33.2643 4.047
33.2739 4.125
33.2836 3.661
33.2932 3.943
33.3028 3.755
33.3124 3.542
33.3220 3.396
33.3316 3.333
33.3413 3.120
33.3509 2.833
33.3605 2.516
33.3701 2.859
33.3797 2.563
33.3894 2.344
33.3990 2.167
33.4086 2.031
33.4182 1.969
33.4278 1.703
33.4374 1.589
33.4471 1.854
33.4567 1.453
33.4663 1.474
33.4759 1.438
33.4855 1.490
33.4951 1.344
33.5048 1.281
33.5144 1.411
33.5240 1.198
33.5336 1.172
33.5432 1.120
33.5528 1.109
33.5625 1.026
33.5721 1.026
33.5817 1.026
33.5913 1.010
33.6009 0.766
33.6105 0.990
33.6202 0.948
33.6298 1.010
33.6394 1.000
33.6490 0.927
33.6586 0.839
33.6682 0.938
33.6779 0.901
33.6875 0.802
33.6971 0.724
33.7067 0.781
33.7163 0.932
33.7259 0.792
33.7356 0.823
33.7452 0.708
33.7548 0.844
33.7644 0.880
33.7740 0.849
33.7836 0.880
33.7933 0.849
33.8029 0.818
33.8125 0.792
33.8221 0.922
33.8317 0.781
33.8413 0.818
33.8510 0.885
33.8606 0.823
33.8702 0.844
33.8798 0.964
33.8894 1.016
33.8991 0.807
33.9087 1.000
33.9183 0.823
33.9279 0.906
33.9375 0.917
33.9471 1.094
33.9568 0.964
33.9664 1.052
33.9760 0.984
33.9856 0.885
33.9952 1.010
34.0048 0.917
34.0145 0.969
34.0241 0.906
34.0337 0.911
34.0433 0.885
34.0529 0.979
34.0625 0.802
34.0722 0.885
34.0818 0.750
34.0914 0.745
34.1010 0.740
34.1106 0.813
34.1202 0.901
34.1299 0.714
34.1395 0.755
34.1491 0.620
34.1587 0.625
34.1683 0.677
34.1779 0.760
34.1876 0.667
34.1972 0.651
34.2068 0.729
34.2164 0.495
34.2260 0.635
34.2356 0.688
34.2453 0.682
34.2549 0.677
34.2645 0.646
34.2741 0.547
34.2837 0.578
34.2933 0.573
34.3030 0.672
34.3126 0.682
34.3222 0.464
34.3318 0.536
34.3414 0.609
34.3510 0.568
34.3607 0.677
34.3703 0.714
34.3799 0.635
34.3895 0.646
34.3991 0.667
34.4088 0.578
34.4184 0.635
34.4280 0.536
34.4376 0.557
34.4472 0.661
34.4568 0.578
34.4665 0.573
34.4761 0.646
34.4857 0.635
34.4953 0.641
34.5049 0.724
34.5145 0.531
34.5242 0.682
34.5338 0.620
34.5434 0.630
34.5530 0.714
34.5626 0.620
34.5722 0.604
34.5819 0.672
34.5915 0.589
34.6011 0.661
34.6107 0.714
34.6203 0.688
34.6299 0.630
34.6396 0.651
34.6492 0.641
34.6588 0.693
34.6684 0.661
34.6780 0.698
34.6876 0.651
34.6973 0.688
34.7069 0.677
34.7165 0.714
34.7261 0.651
34.7357 0.766
34.7453 0.651
34.7550 0.635
34.7646 0.651
34.7742 0.667
34.7838 0.651
34.7934 0.802
34.8030 0.792
34.8127 0.875
34.8223 0.729
34.8319 0.688
34.8415 0.651
34.8511 0.771
34.8607 0.839
34.8704 0.719
34.8800 0.771
34.8896 0.620
34.8992 0.786
34.9088 0.885
34.9185 0.750
34.9281 0.943
34.9377 0.781
34.9473 0.891
34.9569 0.974
34.9665 0.938
34.9762 1.005
34.9858 1.063
34.9954 1.021
35.0050 1.073
35.0146 1.250
35.0242 0.953
35.0339 1.156
35.0435 1.313
35.0531 1.203
35.0627 1.161
35.0723 1.245
35.0819 1.219
35.0916 1.219
35.1012 1.203
35.1108 1.151
35.1204 1.271
35.1300 1.354
35.1396 1.313
35.1493 1.193
35.1589 1.260
35.1685 1.323
35.1781 1.328
35.1877 1.344
35.1973 1.245
35.2070 1.396
35.2166 1.328
35.2262 1.323
35.2358 1.380
35.2454 1.396
35.2550 1.302
35.2647 1.276
35.2743 1.302
35.2839 1.391
35.2935 1.583
35.3031 1.313
35.3127 1.411
35.3224 1.458
35.3320 1.464
35.3416 1.526
35.3512 1.385
35.3608 1.578
35.3705 1.531
35.3801 1.526
35.3897 1.500
35.3993 1.589
35.4089 1.490
35.4185 1.521
35.4282 1.688
35.4378 1.719
35.4474 1.635
35.4570 1.531
35.4666 1.813
35.4762 1.807
35.4859 1.740
35.4955 1.641
35.5051 1.714
35.5147 1.792
35.5243 1.536
35.5339 1.609
35.5436 1.766
35.5532 1.792
35.5628 1.536
35.5724 1.578
35.5820 1.766
35.5916 1.443
35.6013 1.604
35.6109 1.661
35.6205 1.792
35.6301 1.688
35.6397 1.385
35.6493 1.729
35.6590 1.802
35.6686 2.016
35.6782 1.760
35.6878 1.958
35.6974 2.203
35.7070 2.245
35.7167 2.234
35.7263 2.302
35.7359 2.260
35.7455 2.500
35.7551 2.563
35.7647 2.766
35.7744 2.766
35.7840 3.026
35.7936 3.313
35.8032 3.172
35.8128 3.589
35.8224 3.547
35.8321 3.521
35.8417 3.083
35.8513 3.365
35.8609 3.438
35.8705 3.073
35.8802 2.885
35.8898 3.172
35.8994 3.063
35.9090 2.906
35.9186 2.797
35.9282 2.938
35.9379 2.865
35.9475 2.719
35.9571 2.516
35.9667 2.354
35.9763 2.464
35.9859 2.313
35.9956 2.193
36.0052 2.109
36.0148 1.979
36.0244 2.151
36.0340 2.229
36.0436 2.172
36.0533 2.271
36.0629 2.047
36.0725 2.219
36.0821 2.182
36.0917 2.177
36.1013 2.089
36.1110 2.260
36.1206 2.250
36.1302 2.083
36.1398 2.245
36.1494 2.130
36.1590 2.271
36.1687 2.151
36.1783 2.042
36.1879 2.240
36.1975 2.224
36.2071 2.172
36.2167 2.297
36.2264 2.443
36.2360 2.167
36.2456 2.391
36.2552 2.526
36.2648 2.208
36.2744 2.344
36.2841 2.276
36.2937 2.115
36.3033 2.177
36.3129 2.021
36.3225 2.031
36.3321 2.016
36.3418 2.172
36.3514 1.995
36.3610 1.943
36.3706 1.953
36.3802 1.776
36.3899 1.828
36.3995 1.651
36.4091 1.849
36.4187 1.682
36.4283 1.797
36.4379 1.521
36.4476 1.474
36.4572 1.313
36.4668 1.432
36.4764 1.349
36.4860 1.333
36.4956 1.255
36.5053 1.318
36.5149 1.135
36.5245 1.146
36.5341 1.156
36.5437 1.073
36.5533 1.167
36.5630 0.990
36.5726 1.010
36.5822 1.083
36.5918 0.859
36.6014 0.984
36.6110 0.984
36.6207 1.042
36.6303 0.979
36.6399 0.958
36.6495 0.958
36.6591 0.885
36.6687 1.010
36.6784 0.995
36.6880 0.953
36.6976 0.880
36.7072 0.859
36.7168 0.974
36.7264 1.063
36.7361 1.104
36.7457 0.922
36.7553 0.917
36.7649 1.078
36.7745 1.115
36.7841 1.026
36.7938 1.052
36.8034 0.896
36.8130 1.089
36.8226 0.797
36.8322 0.938
36.8418 1.094
36.8515 0.922
36.8611 1.167
36.8707 1.010
36.8803 0.974
36.8899 1.005
36.8996 0.823
36.9092 1.016
36.9188 0.922
36.9284 0.849
36.9380 0.974
36.9476 0.859
36.9573 0.938
36.9669 0.922
36.9765 0.839
36.9861 0.917
36.9957 0.859
37.0053 0.870
37.0150 0.932
37.0246 1.026
37.0342 0.943
37.0438 1.016
37.0534 0.917
37.0630 0.927
37.0727 0.917
37.0823 1.073
37.0919 1.010
37.1015 1.151
37.1111 1.177
37.1207 1.068
37.1304 1.198
37.1400 1.167
37.1496 1.177
37.1592 1.177
37.1688 1.255
37.1784 1.297
37.1881 1.167
37.1977 1.339
37.2073 1.458
37.2169 1.260
37.2265 1.318
37.2361 1.208
37.2458 1.375
37.2554 1.188
37.2650 1.297
37.2746 1.255
37.2842 1.182
37.2938 1.234
37.3035 1.010
37.3131 1.167
37.3227 1.052
37.3323 0.969
37.3419 1.094
37.3516 0.948
37.3612 0.938
37.3708 0.995
37.3804 0.922
37.3900 0.807
37.3996 0.917
37.4093 0.880
37.4189 0.859
37.4285 0.771
37.4381 0.865
37.4477 0.844
37.4573 0.750
37.4670 0.807
37.4766 0.792
37.4862 0.755
37.4958 0.839
37.5054 0.771
37.5150 0.635
37.5247 0.760
37.5343 0.760
37.5439 0.781
37.5535 0.901
37.5631 0.792
37.5727 0.807
37.5824 0.797
37.5920 0.771
37.6016 0.813
37.6112 0.807
37.6208 0.828
37.6304 0.828
37.6401 0.828
37.6497 0.823
37.6593 0.797
37.6689 0.911
37.6785 0.859
37.6881 0.844
37.6978 0.927
37.7074 0.917
37.7170 0.849
37.7266 0.844
37.7362 0.938
37.7458 0.917
37.7555 0.875
37.7651 0.839
37.7747 0.859
37.7843 0.859
37.7939 0.901
37.8035 0.932
37.8132 0.781
37.8228 1.057
37.8324 0.896
37.8420 0.948
37.8516 0.958
37.8613 0.938
37.8709 0.833
37.8805 1.021
37.8901 0.854
37.8997 0.901
37.9093 0.766
37.9190 0.818
37.9286 0.891
37.9382 0.844
37.9478 0.823
37.9574 0.792
37.9670 0.854
37.9767 0.797
37.9863 0.964
37.9959 0.818
38.0055 0.745
38.0151 0.818
38.0247 0.833
38.0344 0.833
38.0440 0.865
38.0536 0.880
38.0632 0.833
38.0728 0.911
38.0824 0.969
38.0921 0.979
38.1017 1.036
38.1113 1.104
38.1209 1.047
38.1305 0.979
38.1401 1.078
38.1498 1.016
38.1594 1.224
38.1690 1.151
38.1786 1.266
38.1882 1.349
38.1978 1.396
38.2075 1.495
38.2171 1.385
38.2267 1.417
38.2363 1.563
38.2459 1.698
38.2555 1.464
38.2652 1.651
38.2748 1.693
38.2844 1.521
38.2940 1.651
38.3036 1.682
38.3132 1.516
38.3229 1.510
38.3325 1.510
38.3421 1.432
38.3517 1.516
38.3613 1.531
38.3710 1.464
38.3806 1.557
38.3902 1.411
38.3998 1.401
38.4094 1.365
38.4190 1.422
38.4287 1.063
38.4383 1.089
38.4479 1.052
38.4575 1.094
38.4671 1.130
38.4767 1.068
38.4864 0.974
38.4960 1.026
38.5056 0.813
38.5152 1.052
38.5248 0.896
38.5344 0.953
38.5441 0.964
38.5537 1.026
38.5633 0.854
38.5729 1.010
38.5825 0.828
38.5921 0.932
38.6018 0.938
38.6114 0.880
38.6210 0.875
38.6306 0.984
38.6402 1.000
38.6498 0.927
38.6595 0.943
38.6691 0.958
38.6787 1.063
38.6883 0.953
38.6979 0.984
38.7075 0.964
38.7172 1.021
38.7268 0.995
38.7364 1.313
38.7460 1.068
38.7556 1.234
38.7652 1.115
38.7749 1.182
38.7845 1.120
38.7941 1.292
38.8037 1.255
38.8133 1.307
38.8229 1.271
38.8326 1.339
38.8422 1.401
38.8518 1.318
38.8614 1.370
38.8710 1.578
38.8807 1.740
38.8903 1.714
38.8999 1.766
38.9095 1.641
38.9191 1.917
38.9287 1.802
38.9384 1.922
38.9480 1.995
38.9576 2.193
38.9672 2.167
38.9768 2.401
38.9864 2.385
38.9961 2.484
39.0057 2.453
39.0153 2.370
39.0249 2.583
39.0345 3.057
39.0441 2.911
39.0538 3.026
39.0634 3.250
39.0730 3.104
39.0826 3.182
39.0922 3.620
39.1018 3.609
39.1115 3.536
39.1211 3.589
39.1307 3.708
39.1403 3.818
39.1499 3.839
39.1595 3.542
39.1692 3.703
39.1788 3.948
39.1884 4.120
39.1980 3.724
39.2076 3.589
39.2172 3.536
39.2269 3.193
39.2365 3.292
39.2461 3.271
39.2557 3.016
39.2653 2.865
39.2749 2.911
39.2846 2.667
39.2942 2.708
39.3038 2.339
39.3134 2.365
39.3230 2.260
39.3326 2.214
39.3423 1.922
39.3519 1.813
39.3615 1.734
39.3711 1.792
39.3807 1.557
39.3904 1.594
39.4000 1.354
39.4096 1.479
39.4192 1.375
39.4288 1.156
39.4384 1.318
39.4481 1.276
39.4577 1.063
39.4673 1.047
39.4769 1.036
39.4865 1.104
39.4961 0.974
39.5058 1.036
39.5154 1.047
39.5250 0.984
39.5346 0.932
39.5442 1.021
39.5538 0.911
39.5635 0.771
39.5731 0.813
39.5827 0.823
39.5923 0.797
39.6019 0.729
39.6115 0.781
39.6212 0.839
39.6308 0.771
39.6404 0.776
39.6500 0.844
39.6596 0.682
39.6692 0.729
39.6789 0.698
39.6885 0.672
39.6981 0.661
39.7077 0.625
39.7173 0.635
39.7269 0.771
39.7366 0.750
39.7462 0.651
39.7558 0.703
39.7654 0.667
39.7750 0.620
39.7846 0.635
39.7943 0.672
39.8039 0.750
39.8135 0.740
39.8231 0.630
39.8327 0.651
39.8424 0.677
39.8520 0.615
39.8616 0.750
39.8712 0.672
39.8808 0.714
39.8904 0.505
39.9001 0.615
39.9097 0.745
39.9193 0.635
39.9289 0.615
39.9385 0.672
39.9481 0.625
39.9578 0.599
39.9674 0.703
39.9770 0.635
39.9866 0.573
39.9962 0.635
40.0058 0.698
40.0155 0.719
40.0251 0.693
40.0347 0.719
40.0443 0.729
40.0539 0.755
40.0635 0.750
40.0732 0.625
40.0828 0.656
40.0924 0.823
40.1020 0.594
40.1116 0.693
40.1212 0.719
40.1309 0.734
40.1405 0.776
40.1501 0.760
40.1597 0.786
40.1693 0.891
40.1789 0.885
40.1886 0.807
40.1982 0.870
40.2078 0.885
40.2174 0.854
40.2270 1.010
40.2366 0.932
40.2463 1.016
40.2559 0.745
40.2655 1.036
40.2751 0.885
40.2847 0.995
40.2943 1.000
40.3040 1.089
40.3136 0.990
40.3232 1.042
40.3328 1.052
40.3424 1.156
40.3521 1.167
40.3617 1.188
40.3713 1.078
40.3809 1.203
40.3905 1.000
40.4001 1.094
40.4098 0.974
40.4194 1.120
40.4290 1.099
40.4386 1.120
40.4482 1.083
40.4578 1.198
40.4675 1.250
40.4771 1.109
40.4867 1.161
40.4963 1.068
40.5059 1.021
40.5155 1.188
40.5252 1.193
40.5348 1.130
40.5444 1.156
40.5540 1.359
40.5636 1.141
40.5732 1.219
40.5829 1.484
40.5925 1.234
40.6021 1.349
40.6117 1.297
40.6213 1.286
40.6309 1.417
40.6406 1.484
40.6502 1.682
40.6598 1.672
40.6694 1.703
40.6790 1.646
40.6886 1.854
40.6983 2.089
40.7079 2.078
40.7175 2.146
40.7271 2.089
40.7367 2.266
40.7463 2.370
40.7560 2.370
40.7656 2.526
40.7752 2.589
40.7848 2.557
40.7944 2.625
40.8040 2.953
40.8137 2.828
40.8233 2.943
40.8329 3.109
40.8425 2.870
40.8521 2.938
40.8618 2.849
40.8714 2.818
40.8810 2.839
40.8906 2.833
40.9002 2.615
40.9098 2.604
40.9195 2.547
40.9291 2.646
40.9387 2.557
40.9483 2.396
40.9579 2.214
40.9675 2.302
40.9772 2.099
40.9868 2.016
40.9964 1.984
41.0060 1.979
41.0156 2.016
41.0252 1.859
41.0349 1.911
41.0445 1.714
41.0541 1.833
41.0637 1.859
41.0733 1.807
41.0829 1.849
41.0926 1.885
41.1022 1.786
41.1118 1.839
41.1214 2.161
41.1310 2.266
41.1406 2.010
41.1503 2.135
41.1599 2.109
41.1695 2.031
41.1791 2.255
41.1887 2.573
41.1983 2.490
41.2080 2.349
41.2176 2.328
41.2272 2.479
41.2368 2.344
41.2464 2.380
41.2560 2.453
41.2657 2.667
41.2753 2.302
41.2849 2.318
41.2945 2.359
41.3041 2.427
41.3137 2.411
41.3234 2.281
41.3330 2.422
41.3426 2.146
41.3522 2.266
41.3618 2.010
41.3715 2.177
41.3811 2.229
41.3907 2.141
41.4003 2.240
41.4099 1.927
41.4195 2.026
41.4292 1.906
41.4388 2.094
41.4484 2.151
41.4580 2.104
41.4676 2.021
41.4772 2.036
41.4869 2.182
41.4965 2.135
41.5061 2.104
41.5157 2.177
41.5253 2.052
41.5349 2.161
41.5446 2.318
41.5542 2.365
41.5638 2.417
41.5734 2.349
41.5830 2.599
41.5926 2.401
41.6023 2.495
41.6119 2.448
41.6215 2.349
41.6311 2.677
41.6407 2.677
41.6503 2.646
41.6600 2.958
41.6696 3.047
41.6792 2.932
41.6888 2.990
41.6984 3.292
41.7080 3.396
41.7177 3.563
41.7273 3.724
41.7369 3.615
41.7465 4.000
41.7561 3.813
41.7657 3.964
41.7754 4.021
41.7850 4.245
41.7946 3.875
41.8042 4.391
41.8138 4.042
41.8234 4.224
41.8331 4.151
41.8427 4.224
41.8523 4.161
41.8619 4.172
41.8715 4.406
41.8812 4.448
41.8908 4.260
41.9004 4.281
41.9100 4.151
41.9196 4.167
41.9292 4.016
41.9389 4.016
41.9485 4.042
41.9581 4.104
41.9677 4.193
41.9773 3.964
41.9869 4.005
41.9966 3.943
42.0062 4.010
42.0158 4.026
42.0254 3.901
42.0350 3.661
42.0446 3.526
42.0543 3.490
42.0639 3.432
42.0735 3.406
42.0831 3.240
42.0927 3.359
42.1023 3.177
42.1120 3.109
42.1216 2.927
42.1312 2.771
42.1408 3.010
42.1504 3.234
42.1600 2.807
42.1697 2.771
42.1793 2.745
42.1889 2.594
42.1985 2.677
42.2081 2.589
42.2177 2.714
42.2274 2.375
42.2370 2.432
42.2466 2.411
42.2562 2.255
42.2658 2.344
42.2754 2.089
42.2851 1.875
42.2947 1.984
42.3043 1.734
42.3139 2.026
42.3235 1.818
42.3332 1.854
42.3428 1.557
42.3524 1.505
42.3620 1.620
42.3716 1.615
42.3812 1.505
42.3909 1.432
42.4005 1.396
42.4101 1.120
42.4197 1.172
42.4293 1.120
42.4389 1.255
42.4486 1.271
42.4582 1.089
42.4678 1.130
42.4774 1.219
42.4870 0.875
42.4966 0.922
42.5063 0.906
42.5159 0.901
42.5255 1.016
42.5351 0.938
42.5447 0.964
42.5543 0.984
42.5640 0.813
42.5736 0.807
42.5832 0.818
42.5928 0.943
42.6024 0.854
42.6120 0.818
42.6217 0.797
42.6313 0.828
42.6409 0.849
42.6505 0.906
42.6601 0.766
42.6697 0.781
42.6794 0.823
42.6890 0.818
42.6986 0.823
42.7082 0.646
42.7178 0.656
42.7274 0.844
42.7371 0.776
42.7467 0.766
42.7563 0.818
42.7659 0.714
42.7755 0.734
42.7851 0.901
42.7948 0.776
42.8044 0.786
42.8140 0.880
42.8236 0.875
42.8332 0.729
42.8429 0.792
42.8525 0.932
42.8621 0.995
42.8717 0.964
42.8813 0.896
42.8909 0.854
42.9006 0.984
42.9102 0.823
42.9198 0.938
42.9294 0.839
42.9390 1.052
42.9486 1.063
42.9583 0.958
42.9679 0.828
42.9775 0.839
42.9871 0.901
42.9967 0.859
43.0063 0.745
43.0160 0.854
43.0256 0.813
43.0352 0.708
43.0448 0.932
43.0544 0.792
43.0640 0.865
43.0737 0.745
43.0833 0.781
43.0929 0.786
43.1025 0.698
43.1121 0.802
43.1217 0.760
43.1314 0.719
43.1410 0.760
43.1506 0.755
43.1602 0.656
43.1698 0.682
43.1794 0.682
43.1891 0.594
43.1987 0.661
43.2083 0.729
43.2179 0.719
43.2275 0.651
43.2371 0.552
43.2468 0.604
43.2564 0.641
43.2660 0.615
43.2756 0.604
43.2852 0.667
43.2948 0.563
43.3045 0.526
43.3141 0.656
43.3237 0.646
43.3333 0.594
43.3429 0.521
43.3526 0.453
43.3622 0.542
43.3718 0.521
43.3814 0.651
43.3910 0.625
43.4006 0.516
43.4103 0.734
43.4199 0.542
43.4295 0.536
43.4391 0.583
43.4487 0.615
43.4583 0.521
43.4680 0.500
43.4776 0.531
43.4872 0.479
43.4968 0.484
43.5064 0.510
43.5160 0.552
43.5257 0.495
43.5353 0.557
43.5449 0.557
43.5545 0.500
43.5641 0.573
43.5737 0.458
43.5834 0.531
43.5930 0.583
43.6026 0.427
43.6122 0.521
43.6218 0.547
43.6314 0.505
43.6411 0.563
43.6507 0.568
43.6603 0.568
43.6699 0.443
43.6795 0.401
43.6891 0.583
43.6988 0.448
43.7084 0.448
43.7180 0.427
43.7276 0.552
43.7372 0.432
43.7468 0.469
43.7565 0.531
43.7661 0.557
43.7757 0.510
43.7853 0.453
43.7949 0.500
43.8045 0.521
43.8142 0.557
43.8238 0.516
43.8334 0.542
43.8430 0.557
43.8526 0.448
43.8623 0.557
43.8719 0.646
43.8815 0.531
43.8911 0.547
43.9007 0.641
43.9103 0.516
43.9200 0.427
43.9296 0.557
43.9392 0.448
43.9488 0.474
43.9584 0.578
43.9680 0.469
43.9777 0.557
43.9873 0.552
43.9969 0.609
44.0065 0.516
44.0161 0.599
44.0257 0.542
44.0354 0.568
44.0450 0.573
44.0546 0.521
44.0642 0.521
44.0738 0.615
44.0834 0.615
44.0931 0.667
44.1027 0.609
44.1123 0.651
44.1219 0.625
44.1315 0.734
44.1411 0.641
44.1508 0.599
44.1604 0.797
44.1700 0.688
44.1796 0.766
44.1892 0.677
44.1988 0.766
44.2085 0.844
44.2181 0.755
44.2277 0.797
44.2373 0.802
44.2469 0.740
44.2565 0.906
44.2662 0.839
44.2758 0.932
44.2854 0.833
44.2950 0.958
44.3046 0.896
44.3142 1.078
44.3239 0.927
44.3335 0.948
44.3431 0.964
44.3527 0.875
44.3623 1.052
44.3720 0.922
44.3816 1.031
44.3912 1.073
44.4008 0.932
44.4104 0.938
44.4200 1.073
44.4297 0.849
44.4393 0.828
44.4489 0.948
44.4585 0.807
44.4681 0.901
44.4777 0.932
44.4874 0.995
44.4970 0.859
44.5066 0.917
44.5162 0.953
44.5258 0.917
44.5354 0.932
44.5451 0.917
44.5547 1.063
44.5643 0.964
44.5739 0.953
44.5835 1.021
44.5931 1.026
44.6028 1.089
44.6124 1.120
44.6220 1.146
44.6316 1.141
44.6412 1.156
44.6508 1.047
44.6605 1.125
44.6701 1.177
44.6797 1.240
44.6893 1.047
44.6989 1.208
44.7085 1.125
44.7182 1.120
44.7278 1.104
44.7374 1.036
44.7470 1.198
44.7566 1.047
44.7662 1.000
44.7759 1.177
44.7855 1.052
44.7951 1.161
44.8047 1.151
44.8143 1.078
44.8240 1.109
44.8336 1.026
44.8432 1.036
44.8528 1.057
44.8624 0.938
44.8720 1.036
44.8817 0.979
44.8913 1.193
44.9009 1.010
44.9105 1.005
44.9201 1.156
44.9297 1.031
44.9394 1.073
44.9490 1.151
44.9586 1.193
44.9682 1.068
44.9778 1.115
44.9874 1.099
44.9971 1.109
45.0067 1.156
45.0163 1.109
45.0259 1.052
45.0355 1.068
45.0451 1.089
45.0548 1.229
45.0644 1.167
45.0740 1.146
45.0836 1.115
45.0932 1.073
45.1028 1.078
45.1125 1.078
45.1221 1.167
45.1317 1.318
45.1413 1.219
45.1509 1.130
45.1605 1.021
45.1702 1.130
45.1798 1.307
45.1894 1.417
45.1990 1.198
45.2086 1.286
45.2182 1.547
45.2279 1.328
45.2375 1.333
45.2471 1.536
45.2567 1.417
45.2663 1.625
45.2759 1.682
45.2856 1.500
45.2952 1.750
45.3048 1.870
45.3144 2.016
45.3240 2.052
45.3337 1.896
45.3433 1.911
45.3529 2.120
45.3625 2.125
45.3721 2.339
45.3817 2.255
45.3914 2.646
45.4010 2.922
45.4106 2.583
45.4202 2.781
45.4298 2.844
45.4394 2.984
45.4491 2.917
45.4587 3.422
45.4683 3.125
45.4779 3.240
45.4875 3.167
45.4971 3.125
45.5068 2.958
45.5164 3.177
45.5260 3.089
45.5356 2.828
45.5452 3.089
45.5548 2.995
45.5645 2.865
45.5741 2.818
45.5837 2.682
45.5933 2.740
45.6029 2.536
45.6125 2.490
45.6222 2.385
45.6318 2.396
45.6414 2.385
45.6510 2.156
45.6606 2.193
45.6702 2.156
45.6799 1.964
45.6895 1.911
45.6991 1.708
45.7087 1.719
45.7183 1.750
45.7279 1.766
45.7376 1.557
45.7472 1.573
45.7568 1.719
45.7664 1.635
45.7760 1.557
45.7856 1.672
45.7953 1.531
45.8049 1.615
45.8145 1.693
45.8241 1.630
45.8337 1.802
45.8434 1.453
45.8530 1.417
45.8626 1.490
45.8722 1.427
45.8818 1.495
45.8914 1.505
45.9011 1.401
45.9107 1.271
45.9203 1.510
45.9299 1.432
45.9395 1.328
45.9491 1.323
45.9588 1.495
45.9684 1.224
45.9780 1.146
45.9876 1.167
45.9972 1.260
46.0068 1.198
46.0165 1.219
46.0261 1.208
46.0357 1.281
46.0453 1.313
46.0549 1.104
46.0645 1.307
46.0742 1.234
46.0838 1.307
46.0934 1.271
46.1030 1.073
46.1126 1.156
46.1222 1.156
46.1319 1.177
46.1415 1.214
46.1511 1.161
46.1607 1.234
46.1703 1.151
46.1799 1.182
46.1896 1.161
46.1992 1.182
46.2088 1.172
46.2184 1.177
46.2280 1.031
46.2376 1.130
46.2473 1.089
46.2569 1.010
46.2665 1.042
46.2761 0.948
46.2857 0.948
46.2953 1.104
46.3050 0.911
46.3146 1.026
46.3242 0.906
46.3338 0.901
46.3434 0.911
46.3531 0.833
46.3627 0.901
46.3723 0.797
46.3819 0.693
46.3915 0.786
46.4011 0.708
46.4108 0.646
46.4204 0.729
46.4300 0.719
46.4396 0.755
46.4492 0.714
46.4588 0.802
46.4685 0.672
46.4781 0.651
46.4877 0.656
46.4973 0.750
46.5069 0.635
46.5165 0.734
46.5262 0.703
46.5358 0.734
46.5454 0.833
46.5550 0.714
46.5646 0.740
46.5742 0.734
46.5839 0.677
46.5935 0.688
46.6031 0.766
46.6127 0.745
46.6223 0.698
46.6319 0.859
46.6416 0.714
46.6512 0.859
46.6608 0.870
46.6704 0.948
46.6800 0.870
46.6896 0.995
46.6993 0.828
46.7089 0.938
46.7185 1.005
46.7281 1.052
46.7377 1.182
46.7473 1.172
46.7570 1.245
46.7666 1.214
46.7762 1.339
46.7858 1.115
46.7954 1.292
46.8050 1.297
46.8147 1.250
46.8243 1.500
46.8339 1.719
46.8435 1.594
46.8531 1.557
46.8628 1.469
46.8724 1.760
46.8820 1.672
46.8916 1.776
46.9012 1.656
46.9108 1.714
46.9205 1.807
46.9301 1.667
46.9397 1.682
46.9493 1.682
46.9589 1.802
46.9685 1.885
46.9782 1.641
46.9878 1.620
46.9974 1.557
47.0070 1.646
47.0166 1.510
47.0262 1.469
47.0359 1.536
47.0455 1.646
47.0551 1.505
47.0647 1.427
47.0743 1.406
47.0839 1.307
47.0936 1.396
47.1032 1.286
47.1128 1.177
47.1224 1.167
47.1320 1.083
47.1416 1.177
47.1513 0.938
47.1609 1.057
47.1705 0.964
47.1801 1.052
47.1897 1.083
47.1993 1.047
47.2090 0.969
47.2186 0.891
47.2282 0.979
47.2378 0.927
47.2474 0.979
47.2570 0.870
47.2667 1.005
47.2763 0.771
47.2859 0.911
47.2955 0.740
47.3051 0.979
47.3148 0.927
47.3244 0.792
47.3340 0.865
47.3436 0.839
47.3532 0.901
47.3628 0.818
47.3725 0.906
47.3821 0.896
47.3917 0.870
47.4013 0.844
47.4109 0.948
47.4205 0.766
47.4302 0.813
47.4398 0.896
47.4494 0.776
47.4590 0.938
47.4686 0.911
47.4782 0.833
47.4879 0.943
47.4975 0.740
47.5071 0.875
47.5167 0.880
47.5263 0.880
47.5359 0.932
47.5456 1.042
47.5552 0.792
47.5648 0.984
47.5744 0.938
47.5840 0.906
47.5936 0.948
47.6033 1.109
47.6129 0.995
47.6225 1.031
47.6321 1.063
47.6417 1.078
47.6513 1.089
47.6610 1.120
47.6706 1.099
47.6802 0.833
47.6898 0.906
47.6994 1.010
47.7090 1.156
47.7187 1.021
47.7283 1.000
47.7379 0.885
47.7475 1.083
47.7571 1.073
47.7667 0.979
47.7764 0.906
47.7860 0.943
47.7956 0.911
47.8052 1.000
47.8148 0.974
47.8245 0.906
47.8341 0.875
47.8437 1.057
47.8533 0.865
47.8629 0.781
47.8725 0.948
47.8822 0.833
47.8918 0.844
47.9014 0.917
47.9110 0.885
47.9206 0.781
47.9302 0.870
47.9399 0.807
47.9495 0.667
47.9591 0.844
47.9687 0.646
47.9783 0.719
47.9879 0.792
47.9976 0.656
48.0072 0.615
48.0168 0.594
48.0264 0.656
48.0360 0.630
48.0456 0.609
48.0553 0.646
48.0649 0.578
48.0745 0.651
48.0841 0.677
48.0937 0.630
48.1033 0.615
48.1130 0.578
48.1226 0.563
48.1322 0.625
48.1418 0.609
48.1514 0.573
48.1610 0.635
48.1707 0.578
48.1803 0.672
48.1899 0.656
48.1995 0.594
48.2091 0.568
48.2187 0.609
48.2284 0.609
48.2380 0.724
48.2476 0.542
48.2572 0.625
48.2668 0.688
48.2764 0.740
48.2861 0.797
48.2957 0.786
48.3053 0.766
48.3149 0.667
48.3245 0.677
48.3342 0.688
48.3438 0.719
48.3534 0.740
48.3630 0.781
48.3726 0.760
48.3822 0.573
48.3919 0.714
48.4015 0.729
48.4111 0.797
48.4207 0.745
48.4303 0.698
48.4399 0.786
48.4496 0.719
48.4592 0.667
48.4688 0.776
48.4784 0.750
48.4880 0.646
48.4976 0.786
48.5073 0.766
48.5169 0.771
48.5265 0.693
48.5361 0.750
48.5457 0.677
48.5553 0.729
48.5650 0.766
48.5746 0.755
48.5842 0.776
48.5938 0.677
48.6034 0.714
48.6130 0.797
48.6227 0.776
48.6323 0.760
48.6419 0.839
48.6515 0.693
48.6611 0.781
48.6707 0.833
48.6804 0.859
48.6900 0.964
48.6996 0.760
48.7092 0.802
48.7188 1.073
48.7284 0.813
48.7381 0.964
48.7477 0.990
48.7573 1.047
48.7669 1.063
48.7765 1.052
48.7861 0.979
48.7958 0.964
48.8054 1.094
48.8150 1.063
48.8246 1.156
48.8342 1.135
48.8439 0.995
48.8535 1.146
48.8631 1.130
48.8727 1.010
48.8823 1.219
48.8919 1.172
48.9016 1.203
48.9112 1.172
48.9208 1.359
48.9304 1.203
48.9400 1.464
48.9496 1.318
48.9593 1.385
48.9689 1.385
48.9785 1.401
48.9881 1.219
48.9977 1.328
49.0073 1.391
49.0170 1.292
49.0266 1.354
49.0362 1.271
49.0458 1.104
49.0554 1.198
49.0650 1.359
49.0747 1.203
49.0843 1.198
49.0939 1.234
49.1035 1.177
49.1131 1.125
49.1227 1.125
49.1324 1.177
49.1420 0.875
49.1516 1.146
49.1612 0.964
49.1708 1.031
49.1804 1.094
49.1901 1.052
49.1997 0.943
49.2093 1.073
49.2189 0.865
49.2285 1.063
49.2381 0.948
49.2478 0.818
49.2574 0.943
49.2670 0.953
49.2766 0.917
49.2862 0.885
49.2959 1.031
49.3055 0.974
49.3151 0.896
49.3247 0.969
49.3343 0.964
49.3439 0.969
49.3536 0.969
49.3632 1.063
49.3728 1.089
49.3824 1.089
49.3920 1.047
49.4016 1.057
49.4113 1.177
49.4209 1.125
49.4305 1.099
49.4401 1.115
49.4497 1.214
49.4593 1.214
49.4690 1.266
49.4786 1.307
49.4882 1.234
49.4978 1.240
49.5074 1.344
49.5170 1.422
49.5267 1.365
49.5363 1.307
49.5459 1.333
49.5555 1.552
49.5651 1.370
49.5747 1.474
49.5844 1.484
49.5940 1.495
49.6036 1.563
49.6132 1.323
49.6228 1.630
49.6324 1.193
49.6421 1.365
49.6517 1.365
49.6613 1.297
49.6709 1.260
49.6805 1.214
49.6901 1.146
49.6998 1.417
49.7094 1.161
49.7190 1.016
49.7286 1.161
49.7382 1.089
49.7478 1.125
49.7575 1.073
49.7671 1.073
49.7767 1.042
49.7863 1.005
49.7959 1.063
49.8056 1.010
49.8152 1.068
49.8248 0.974
49.8344 0.875
49.8440 1.052
49.8536 0.984
49.8633 0.984
49.8729 0.927
49.8825 0.865
49.8921 0.995
49.9017 1.073
49.9113 0.948
49.9210 1.141
49.9306 0.974
49.9402 1.130
49.9498 1.130
49.9594 1.188
49.9690 1.078
49.9787 1.344
49.9883 1.281
49.9979 1.208
50.0075 1.286
50.0171 1.313
50.0267 1.349
50.0364 1.297
50.0460 1.307
50.0556 1.281
50.0652 1.427
50.0748 1.385
50.0844 1.344
50.0941 1.469
50.1037 1.568
50.1133 1.432
50.1229 1.526
50.1325 1.495
50.1421 1.245
50.1518 1.615
50.1614 1.458
50.1710 1.307
50.1806 1.401
50.1902 1.464
50.1998 1.339
50.2095 1.453
50.2191 1.302
50.2287 1.276
50.2383 1.172
50.2479 1.318
50.2575 1.089
50.2672 1.198
50.2768 1.188
50.2864 1.036
50.2960 1.094
50.3056 1.146
50.3153 0.969
50.3249 1.151
50.3345 0.823
50.3441 1.016
50.3537 0.844
50.3633 0.844
50.3730 0.849
50.3826 0.891
50.3922 0.797
50.4018 0.797
50.4114 0.714
50.4210 0.682
50.4307 0.745
50.4403 0.661
50.4499 0.656
50.4595 0.615
50.4691 0.547
50.4787 0.693
50.4884 0.625
50.4980 0.620
50.5076 0.745
50.5172 0.510
50.5268 0.620
50.5364 0.693
50.5461 0.703
50.5557 0.656
50.5653 0.604
50.5749 0.667
50.5845 0.594
50.5941 0.526
50.6038 0.495
50.6134 0.604
50.6230 0.479
50.6326 0.625
50.6422 0.568
50.6518 0.505
50.6615 0.589
50.6711 0.526
50.6807 0.396
50.6903 0.479
50.6999 0.557
50.7095 0.521
50.7192 0.484
50.7288 0.547
50.7384 0.604
50.7480 0.547
50.7576 0.526
50.7672 0.479
50.7769 0.536
50.7865 0.542
50.7961 0.375
50.8057 0.396
50.8153 0.526
50.8250 0.438
50.8346 0.510
50.8442 0.474
50.8538 0.432
50.8634 0.464
50.8730 0.474
50.8827 0.448
50.8923 0.406
50.9019 0.500
50.9115 0.443
50.9211 0.432
50.9307 0.438
50.9404 0.469
50.9500 0.396
50.9596 0.453
50.9692 0.464
50.9788 0.448
50.9884 0.427
50.9981 0.443
51.0077 0.396
51.0173 0.417
51.0269 0.479
51.0365 0.458
51.0461 0.422
51.0558 0.406
51.0654 0.464
51.0750 0.474
51.0846 0.526
51.0942 0.536
51.1038 0.495
51.1135 0.484
51.1231 0.495
51.1327 0.385
51.1423 0.448
51.1519 0.469
51.1615 0.432
51.1712 0.411
51.1808 0.370
51.1904 0.458
51.2000 0.396
51.2096 0.396
51.2192 0.422
51.2289 0.469
51.2385 0.448
51.2481 0.490
51.2577 0.438
51.2673 0.406
51.2769 0.422
51.2866 0.490
51.2962 0.448
51.3058 0.391
51.3154 0.354
51.3250 0.464
51.3347 0.401
51.3443 0.411
51.3539 0.411
51.3635 0.490
51.3731 0.401
51.3827 0.505
51.3924 0.464
51.4020 0.385
51.4116 0.443
51.4212 0.401
51.4308 0.438
51.4404 0.542
51.4501 0.490
51.4597 0.375
51.4693 0.500
51.4789 0.490
51.4885 0.510
51.4981 0.484
51.5078 0.495
51.5174 0.526
51.5270 0.516
51.5366 0.380
51.5462 0.469
51.5558 0.505
51.5655 0.495
51.5751 0.474
51.5847 0.443
51.5943 0.411
51.6039 0.547
51.6135 0.557
51.6232 0.495
51.6328 0.391
51.6424 0.505
51.6520 0.505
51.6616 0.641
51.6712 0.557
51.6809 0.542
51.6905 0.484
51.7001 0.510
51.7097 0.573
51.7193 0.609
51.7289 0.635
51.7386 0.635
51.7482 0.609
51.7578 0.708
51.7674 0.677
51.7770 0.776
51.7867 0.656
51.7963 0.792
51.8059 0.661
51.8155 0.797
51.8251 0.734
51.8347 0.766
51.8444 0.714
51.8540 0.896
51.8636 0.766
51.8732 0.849
51.8828 0.917
51.8924 0.979
51.9021 0.839
51.9117 0.781
51.9213 0.917
51.9309 0.984
51.9405 0.901
51.9501 0.849
51.9598 0.958
51.9694 1.031
51.9790 0.917
51.9886 0.932
51.9982 1.047
52.0078 0.906
52.0175 1.021
52.0271 0.797
52.0367 0.917
52.0463 0.906
52.0559 1.021
52.0655 0.870
52.0752 0.854
52.0848 0.896
52.0944 0.859
52.1040 0.807
52.1136 0.953
52.1232 0.823
52.1329 0.807
52.1425 1.000
52.1521 0.880
52.1617 0.917
52.1713 0.786
52.1809 0.964
52.1906 0.833
52.2002 0.807
52.2098 0.781
52.2194 0.813
52.2290 0.901
52.2386 0.901
52.2483 0.943
52.2579 0.917
52.2675 0.813
52.2771 0.891
52.2867 0.828
52.2964 0.917
52.3060 0.969
52.3156 0.995
52.3252 1.031
52.3348 0.938
52.3444 0.964
52.3541 1.016
52.3637 1.010
52.3733 1.104
52.3829 1.094
52.3925 1.161
52.4021 1.135
52.4118 1.167
52.4214 1.094
52.4310 1.182
52.4406 1.130
52.4502 1.083
52.4598 1.042
52.4695 1.266
52.4791 1.307
52.4887 1.349
52.4983 1.339
52.5079 1.318
52.5175 1.385
52.5272 1.302
52.5368 1.521
52.5464 1.365
52.5560 1.385
52.5656 1.453
52.5752 1.510
52.5849 1.271
52.5945 1.510
52.6041 1.380
52.6137 1.307
52.6233 1.438
52.6329 1.370
52.6426 1.146
52.6522 1.318
52.6618 1.219
52.6714 1.255
52.6810 1.318
52.6906 1.198
52.7003 1.094
52.7099 1.073
52.7195 1.099
52.7291 1.005
52.7387 1.161
52.7483 1.109
52.7580 1.125
52.7676 1.068
52.7772 0.984
52.7868 1.000
52.7964 0.927
52.8061 0.911
52.8157 0.938
52.8253 0.885
52.8349 0.891
52.8445 0.818
52.8541 0.859
52.8638 0.823
52.8734 0.703
52.8830 0.786
52.8926 0.818
52.9022 0.807
52.9118 0.635
52.9215 0.740
52.9311 0.724
52.9407 0.688
52.9503 0.760
52.9599 0.714
52.9695 0.693
52.9792 0.693
52.9888 0.620
52.9984 0.724
53.0080 0.714
53.0176 0.526
53.0272 0.635
53.0369 0.688
53.0465 0.583
53.0561 0.552
53.0657 0.516
53.0753 0.516
53.0849 0.573
53.0946 0.594
53.1042 0.469
53.1138 0.469
53.1234 0.526
53.1330 0.391
53.1426 0.474
53.1523 0.453
53.1619 0.453
53.1715 0.521
53.1811 0.490
53.1907 0.479
53.2003 0.542
53.2100 0.443
53.2196 0.370
53.2292 0.438
53.2388 0.557
53.2484 0.438
53.2580 0.380
53.2677 0.422
53.2773 0.474
53.2869 0.453
53.2965 0.505
53.3061 0.526
53.3158 0.339
53.3254 0.391
53.3350 0.438
53.3446 0.375
53.3542 0.479
53.3638 0.458
53.3735 0.365
53.3831 0.406
53.3927 0.396
53.4023 0.385
53.4119 0.411
53.4215 0.391
53.4312 0.427
53.4408 0.370
53.4504 0.453
53.4600 0.474
53.4696 0.448
53.4792 0.349
53.4889 0.500
53.4985 0.427
53.5081 0.396
53.5177 0.401
53.5273 0.406
53.5369 0.432
53.5466 0.443
53.5562 0.448
53.5658 0.411
53.5754 0.375
53.5850 0.495
53.5946 0.370
53.6043 0.458
53.6139 0.484
53.6235 0.484
53.6331 0.401
53.6427 0.401
53.6523 0.490
53.6620 0.443
53.6716 0.401
53.6812 0.411
53.6908 0.417
53.7004 0.531
53.7100 0.411
53.7197 0.396
53.7293 0.443
53.7389 0.411
53.7485 0.521
53.7581 0.557
53.7677 0.432
53.7774 0.490
53.7870 0.526
53.7966 0.651
53.8062 0.620
53.8158 0.682
53.8255 0.615
53.8351 0.573
53.8447 0.547
53.8543 0.552
53.8639 0.516
53.8735 0.573
53.8832 0.557
53.8928 0.479
53.9024 0.453
53.9120 0.526
53.9216 0.474
53.9312 0.578
53.9409 0.594
53.9505 0.500
53.9601 0.599
53.9697 0.552
53.9793 0.505
53.9889 0.458
53.9986 0.464
54.0082 0.526
54.0178 0.495
54.0274 0.521
54.0370 0.484
54.0466 0.521
54.0563 0.484
54.0659 0.521
54.0755 0.495
54.0851 0.443
54.0947 0.396
54.1043 0.432
54.1140 0.495
54.1236 0.458
54.1332 0.427
54.1428 0.401
54.1524 0.474
54.1620 0.432
54.1717 0.417
54.1813 0.484
54.1909 0.453
54.2005 0.443
54.2101 0.495
54.2197 0.432
54.2294 0.531
54.2390 0.417
54.2486 0.516
54.2582 0.521
54.2678 0.495
54.2775 0.479
54.2871 0.458
54.2967 0.422
54.3063 0.458
54.3159 0.505
54.3255 0.578
54.3352 0.526
54.3448 0.594
54.3544 0.583
54.3640 0.568
54.3736 0.500
54.3832 0.609
54.3929 0.557
54.4025 0.625
54.4121 0.672
54.4217 0.583
54.4313 0.615
54.4409 0.542
54.4506 0.573
54.4602 0.573
54.4698 0.615
54.4794 0.547
54.4890 0.599
54.4986 0.656
54.5083 0.604
54.5179 0.630
54.5275 0.703
54.5371 0.740
54.5467 0.641
54.5563 0.682
54.5660 0.750
54.5756 0.703
54.5852 0.729
54.5948 0.750
54.6044 0.729
54.6140 0.745
54.6237 0.688
54.6333 0.656
54.6429 0.609
54.6525 0.661
54.6621 0.677
54.6717 0.682
54.6814 0.682
54.6910 0.688
54.7006 0.698
54.7102 0.750
54.7198 0.677
54.7294 0.740
54.7391 0.729
54.7487 0.656
54.7583 0.635
54.7679 0.792
54.7775 0.719
54.7872 0.776
54.7968 0.792
54.8064 0.620
54.8160 0.776
54.8256 0.766
54.8352 0.854
54.8449 0.849
54.8545 0.755
54.8641 0.859
54.8737 0.771
54.8833 0.880
54.8929 0.818
54.9026 0.776
54.9122 0.932
54.9218 0.958
54.9314 0.932
54.9410 0.854
54.9506 0.823
54.9603 0.901
54.9699 0.901
54.9795 0.760
54.9891 0.781
54.9987 0.859
55.0083 0.839
55.0180 0.880
55.0276 0.734
55.0372 0.833
55.0468 0.813
55.0564 0.865
55.0660 0.813
55.0757 0.818
55.0853 0.839
55.0949 0.828
55.1045 0.823
55.1141 0.813
55.1237 0.833
55.1334 0.745
55.1430 0.807
55.1526 0.776
55.1622 0.896
55.1718 0.807
55.1814 0.781
55.1911 0.953
55.2007 0.729
55.2103 0.818
55.2199 0.734
55.2295 0.948
55.2391 0.979
55.2488 0.781
55.2584 0.813
55.2680 0.714
55.2776 0.865
55.2872 0.818
55.2969 0.885
55.3065 0.844
55.3161 0.802
55.3257 0.760
55.3353 0.708
55.3449 0.781
55.3546 0.698
55.3642 0.839
55.3738 0.661
55.3834 0.844
55.3930 0.693
55.4026 0.844
55.4123 0.922
55.4219 0.719
55.4315 0.724
55.4411 0.635
55.4507 0.813
55.4603 0.719
55.4700 0.807
55.4796 0.792
55.4892 0.651
55.4988 0.740
55.5084 0.724
55.5180 0.698
55.5277 0.734
55.5373 0.641
55.5469 0.766
55.5565 0.682
55.5661 0.734
55.5757 0.641
55.5854 0.745
55.5950 0.583
55.6046 0.594
55.6142 0.604
55.6238 0.682
55.6334 0.682
55.6431 0.651
55.6527 0.682
55.6623 0.656
55.6719 0.573
55.6815 0.672
55.6911 0.516
55.7008 0.604
55.7104 0.688
55.7200 0.661
55.7296 0.615
55.7392 0.646
55.7488 0.661
55.7585 0.620
55.7681 0.531
55.7777 0.682
55.7873 0.677
55.7969 0.568
55.8066 0.672
55.8162 0.771
55.8258 0.688
55.8354 0.719
55.8450 0.807
55.8546 0.688
55.8643 0.760
55.8739 0.813
55.8835 0.760
55.8931 0.792
55.9027 0.865
55.9123 0.745
55.9220 0.844
55.9316 0.917
55.9412 0.823
55.9508 0.760
55.9604 0.880
55.9700 0.938
55.9797 0.776
55.9893 1.026
55.9989 0.911
56.0085 1.005
56.0181 1.068
56.0277 0.938
56.0374 1.083
56.0470 1.036
56.0566 0.984
56.0662 1.010
56.0758 1.021
56.0854 1.005
56.0951 0.922
56.1047 0.891
56.1143 1.031
56.1239 0.964
56.1335 0.932
56.1431 0.984
56.1528 0.990
56.1624 0.891
56.1720 1.042
56.1816 0.964
56.1912 1.026
56.2008 0.896
56.2105 0.906
56.2201 0.932
56.2297 0.839
56.2393 0.948
56.2489 0.880
56.2585 0.875
56.2682 0.891
56.2778 0.786
56.2874 0.849
56.2970 0.781
56.3066 0.990
56.3163 0.964
56.3259 0.990
56.3355 1.010
56.3451 0.833
56.3547 1.000
56.3643 0.938
56.3740 0.938
56.3836 0.969
56.3932 1.021
56.4028 1.250
56.4124 1.109
56.4220 1.063
56.4317 1.135
56.4413 1.203
56.4509 1.177
56.4605 1.297
56.4701 1.255
56.4797 1.323
56.4894 1.354
56.4990 1.411
56.5086 1.365
56.5182 1.458
56.5278 1.552
56.5374 1.542
56.5471 1.693
56.5567 1.615
56.5663 1.661
56.5759 1.781
56.5855 2.016
56.5951 1.948
56.6048 2.063
56.6144 1.938
56.6240 2.047
56.6336 2.188
56.6432 2.161
56.6528 2.271
56.6625 2.229
56.6721 2.219
56.6817 2.510
56.6913 2.281
56.7009 2.563
56.7105 2.583
56.7202 2.479
56.7298 2.344
56.7394 2.391
56.7490 2.495
56.7586 2.729
56.7683 2.391
56.7779 2.438
56.7875 2.609
56.7971 2.734
56.8067 2.625
56.8163 2.453
56.8260 2.453
56.8356 2.500
56.8452 2.677
56.8548 2.531
56.8644 2.453
56.8740 2.292
56.8837 2.557
56.8933 2.432
56.9029 2.427
56.9125 2.328
56.9221 2.557
56.9317 2.370
56.9414 2.219
56.9510 2.281
56.9606 2.047
56.9702 2.349
56.9798 2.245
56.9894 2.208
56.9991 2.234
57.0087 2.203
57.0183 2.208
57.0279 2.219
57.0375 1.990
57.0471 2.130
57.0568 1.964
57.0664 1.875
57.0760 2.073
57.0856 1.974
57.0952 1.984
57.1048 1.844
57.1145 1.948
57.1241 1.797
57.1337 1.802
57.1433 1.693
57.1529 1.641
57.1625 1.771
57.1722 1.698
57.1818 1.568
57.1914 1.583
57.2010 1.406
57.2106 1.385
57.2202 1.453
57.2299 1.552
57.2395 1.438
57.2491 1.339
57.2587 1.286
57.2683 1.297
57.2780 1.219
57.2876 1.328
57.2972 1.167
57.3068 1.161
57.3164 1.031
57.3260 1.182
57.3357 1.083
57.3453 1.068
57.3549 1.042
57.3645 1.010
57.3741 0.964
57.3837 1.047
57.3934 1.010
57.4030 0.818
57.4126 0.938
57.4222 0.839
57.4318 0.844
57.4414 0.760
57.4511 0.740
57.4607 0.823
57.4703 0.833
57.4799 0.839
57.4895 0.708
57.4991 0.745
57.5088 0.724
57.5184 0.813
57.5280 0.807
57.5376 0.688
57.5472 0.703
57.5568 0.750
57.5665 0.698
57.5761 0.734
57.5857 0.656
57.5953 0.667
57.6049 0.714
57.6145 0.599
57.6242 0.568
57.6338 0.589
57.6434 0.531
57.6530 0.495
57.6626 0.594
57.6722 0.573
57.6819 0.651
57.6915 0.656
57.7011 0.536
57.7107 0.620
57.7203 0.563
57.7299 0.609
57.7396 0.604
57.7492 0.568
57.7588 0.557
57.7684 0.458
57.7780 0.516
57.7877 0.630
57.7973 0.505
57.8069 0.526
57.8165 0.568
57.8261 0.490
57.8357 0.573
57.8454 0.703
57.8550 0.630
57.8646 0.563
57.8742 0.776
57.8838 0.688
57.8934 0.583
57.9031 0.542
57.9127 0.714
57.9223 0.615
57.9319 0.682
57.9415 0.677
57.9511 0.682
57.9608 0.646
57.9704 0.672
57.9800 0.656
57.9896 0.646
57.9992 0.672
58.0088 0.589
58.0185 0.740
58.0281 0.651
58.0377 0.672
58.0473 0.719
58.0569 0.573
58.0665 0.661
58.0762 0.719
58.0858 0.604
58.0954 0.620
58.1050 0.677
58.1146 0.703
58.1242 0.656
58.1339 0.719
58.1435 0.714
58.1531 0.708
58.1627 0.714
58.1723 0.854
58.1819 0.740
58.1916 0.781
58.2012 0.807
58.2108 0.786
58.2204 0.656
58.2300 0.792
58.2396 0.917
58.2493 0.792
58.2589 0.849
58.2685 0.911
58.2781 0.901
58.2877 0.979
58.2974 1.000
58.3070 1.005
58.3166 1.089
58.3262 0.932
58.3358 0.958
58.3454 1.052
58.3551 1.141
58.3647 1.078
58.3743 1.146
58.3839 1.240
58.3935 1.323
58.4031 1.318
58.4128 1.125
58.4224 1.484
58.4320 1.167
58.4416 1.339
58.4512 1.245
58.4608 1.396
58.4705 1.396
58.4801 1.323
58.4897 1.391
58.4993 1.339
58.5089 1.219
58.5185 1.208
58.5282 1.422
58.5378 1.359
58.5474 1.328
58.5570 1.234
58.5666 1.229
58.5762 1.464
58.5859 1.401
58.5955 1.458
58.6051 1.094
58.6147 1.260
58.6243 1.266
58.6339 1.333
58.6436 1.156
58.6532 1.224
58.6628 1.193
58.6724 1.146
58.6820 1.333
58.6916 1.302
58.7013 1.292
58.7109 1.297
58.7205 1.255
58.7301 1.359
58.7397 1.245
58.7493 1.151
58.7590 1.234
58.7686 1.318
58.7782 1.276
58.7878 1.193
58.7974 1.359
58.8071 1.495
58.8167 1.438
58.8263 1.443
58.8359 1.401
58.8455 1.266
58.8551 1.505
58.8648 1.625
58.8744 1.516
58.8840 1.896
58.8936 1.646
58.9032 1.641
58.9128 1.818
58.9225 1.755
58.9321 1.901
58.9417 1.901
58.9513 1.927
58.9609 1.672
58.9705 1.635
58.9802 1.844
58.9898 1.807
58.9994 1.927
59.0090 1.839
59.0186 1.719
59.0282 1.750
59.0379 1.880
59.0475 1.651
59.0571 1.693
59.0667 1.641
59.0763 1.880
59.0859 1.656
59.0956 1.620
59.1052 1.594
59.1148 1.516
59.1244 1.438
59.1340 1.505
59.1436 1.458
59.1533 1.370
59.1629 1.292
59.1725 1.266
59.1821 1.188
59.1917 1.182
59.2013 1.078
59.2110 1.021
59.2206 1.094
59.2302 0.979
59.2398 1.130
59.2494 1.052
59.2591 0.849
59.2687 0.901
59.2783 0.870
59.2879 0.724
59.2975 0.766
59.3071 0.875
59.3168 0.724
59.3264 0.813
59.3360 0.833
59.3456 0.755
59.3552 0.693
59.3648 0.651
59.3745 0.714
59.3841 0.776
59.3937 0.719
59.4033 0.656
59.4129 0.672
59.4225 0.682
59.4322 0.599
59.4418 0.667
59.4514 0.693
59.4610 0.625
59.4706 0.703
59.4802 0.661
59.4899 0.609
59.4995 0.625
59.5091 0.646
59.5187 0.589
59.5283 0.682
59.5379 0.661
59.5476 0.609
59.5572 0.635
59.5668 0.620
59.5764 0.594
59.5860 0.594
59.5956 0.495
59.6053 0.578
59.6149 0.568
59.6245 0.479
59.6341 0.615
59.6437 0.495
59.6533 0.682
59.6630 0.578
59.6726 0.589
59.6822 0.531
59.6918 0.573
59.7014 0.620
59.7110 0.682
59.7207 0.589
59.7303 0.568
59.7399 0.635
59.7495 0.609
59.7591 0.625
59.7688 0.583
59.7784 0.589
59.7880 0.516
59.7976 0.594
59.8072 0.516
59.8168 0.646
59.8265 0.484
59.8361 0.547
59.8457 0.568
59.8553 0.557
59.8649 0.615
59.8745 0.589
59.8842 0.542
59.8938 0.635
59.9034 0.703
59.9130 0.682
59.9226 0.563
59.9322 0.677
59.9419 0.568
59.9515 0.630
59.9611 0.703
59.9707 0.651
59.9803 0.719
59.9899 0.604
59.9996 0.578
60.0092 0.786
60.0188 0.755
60.0284 0.615
60.0380 0.792
60.0476 0.599
60.0573 0.745
60.0669 0.641
60.0765 0.797
60.0861 0.740
60.0957 0.703
60.1053 0.734
60.1150 0.667
60.1246 0.661
60.1342 0.792
60.1438 0.708
60.1534 0.818
60.1630 0.724
60.1727 0.724
60.1823 0.719
60.1919 0.635
60.2015 0.745
60.2111 0.740
60.2207 0.875
60.2304 0.734
60.2400 0.760
60.2496 0.630
60.2592 0.781
60.2688 0.745
60.2785 0.766
60.2881 0.708
60.2977 0.745
60.3073 0.844
60.3169 0.719
60.3265 0.844
60.3362 0.844
60.3458 0.901
60.3554 0.943
60.3650 0.844
60.3746 0.906
60.3842 0.870
60.3939 0.760
60.4035 0.880
60.4131 0.927
60.4227 0.854
60.4323 0.734
60.4419 0.979
60.4516 0.964
60.4612 0.875
60.4708 0.906
60.4804 1.120
60.4900 0.854
60.4996 1.047
60.5093 0.781
60.5189 0.964
60.5285 0.922
60.5381 0.964
60.5477 0.974
60.5573 0.802
60.5670 0.938
60.5766 0.906
60.5862 0.839
60.5958 0.859
60.6054 0.833
60.6150 0.839
60.6247 0.703
60.6343 0.781
60.6439 0.885
60.6535 0.786
60.6631 0.719
60.6727 0.750
60.6824 0.760
60.6920 0.766
60.7016 0.828
60.7112 0.802
60.7208 0.714
60.7304 0.635
60.7401 0.703
60.7497 0.620
60.7593 0.724
60.7689 0.651
60.7785 0.698
60.7882 0.568
60.7978 0.703
60.8074 0.615
60.8170 0.651
60.8266 0.698
60.8362 0.625
60.8459 0.656
60.8555 0.563
60.8651 0.677
60.8747 0.510
60.8843 0.500
60.8939 0.469
60.9036 0.589
60.9132 0.667
60.9228 0.604
60.9324 0.635
60.9420 0.547
60.9516 0.505
60.9613 0.609
60.9709 0.458
60.9805 0.516
60.9901 0.604
60.9997 0.479
61.0093 0.453
61.0190 0.438
61.0286 0.526
61.0382 0.682
61.0478 0.536
61.0574 0.500
61.0670 0.464
61.0767 0.484
61.0863 0.490
61.0959 0.417
61.1055 0.464
61.1151 0.510
61.1247 0.500
61.1344 0.391
61.1440 0.458
61.1536 0.448
61.1632 0.448
61.1728 0.406
61.1824 0.427
61.1921 0.380
61.2017 0.432
61.2113 0.432
61.2209 0.500
61.2305 0.547
61.2401 0.490
61.2498 0.547
61.2594 0.484
61.2690 0.516
61.2786 0.505
61.2882 0.453
61.2979 0.578
61.3075 0.411
61.3171 0.552
61.3267 0.516
61.3363 0.505
61.3459 0.531
61.3556 0.630
61.3652 0.563
61.3748 0.526
61.3844 0.656
61.3940 0.531
61.4036 0.599
61.4133 0.714
61.4229 0.589
61.4325 0.589
61.4421 0.677
61.4517 0.531
61.4613 0.578
61.4710 0.672
61.4806 0.547
61.4902 0.552
61.4998 0.682
61.5094 0.667
61.5190 0.677
61.5287 0.703
61.5383 0.667
61.5479 0.682
61.5575 0.677
61.5671 0.682
61.5767 0.719
61.5864 0.760
61.5960 0.786
61.6056 0.724
61.6152 0.745
61.6248 0.771
61.6344 0.714
61.6441 0.771
61.6537 0.703
61.6633 0.813
61.6729 0.724
61.6825 0.682
61.6921 0.786
61.7018 0.776
61.7114 0.844
61.7210 0.823
61.7306 0.776
61.7402 0.974
61.7499 0.792
61.7595 0.776
61.7691 0.938
61.7787 0.844
61.7883 0.786
61.7979 0.849
61.8076 0.870
61.8172 0.771
61.8268 0.755
61.8364 0.786
61.8460 0.839
61.8556 0.813
61.8653 0.724
61.8749 0.698
61.8845 0.688
61.8941 0.766
61.9037 0.734
61.9133 0.635
61.9230 0.703
61.9326 0.771
61.9422 0.786
61.9518 0.693
61.9614 0.792
61.9710 0.760
61.9807 0.630
61.9903 0.786
61.9999 0.625
62.0095 0.776
62.0191 0.625
62.0287 0.688
62.0384 0.667
62.0480 0.740
62.0576 0.703
62.0672 0.568
62.0768 0.625
62.0864 0.604
62.0961 0.542
62.1057 0.609
62.1153 0.615
62.1249 0.630
62.1345 0.656
62.1441 0.526
62.1538 0.609
62.1634 0.563
62.1730 0.630
62.1826 0.490
62.1922 0.630
62.2018 0.646
62.2115 0.526
62.2211 0.526
62.2307 0.531
62.2403 0.531
62.2499 0.490
62.2596 0.563
62.2692 0.495
62.2788 0.500
62.2884 0.578
62.2980 0.604
62.3076 0.552
62.3173 0.479
62.3269 0.479
62.3365 0.469
62.3461 0.474
62.3557 0.583
62.3653 0.521
62.3750 0.542
62.3846 0.573
62.3942 0.365
62.4038 0.667
62.4134 0.500
62.4230 0.474
62.4327 0.542
62.4423 0.464
62.4519 0.573
62.4615 0.557
62.4711 0.427
62.4807 0.531
62.4904 0.479
62.5000 0.495
62.5096 0.552
62.5192 0.484
62.5288 0.510
62.5384 0.458
62.5481 0.422
62.5577 0.490
62.5673 0.464
62.5769 0.479
62.5865 0.510
62.5961 0.391
62.6058 0.521
62.6154 0.500
62.6250 0.490
62.6346 0.469
62.6442 0.406
62.6538 0.484
62.6635 0.583
62.6731 0.505
62.6827 0.536
62.6923 0.432
62.7019 0.422
62.7115 0.505
62.7212 0.380
62.7308 0.505
62.7404 0.479
62.7500 0.563
62.7596 0.422
62.7693 0.583
62.7789 0.479
62.7885 0.438
62.7981 0.484
62.8077 0.484
62.8173 0.448
62.8270 0.448
62.8366 0.510
62.8462 0.536
62.8558 0.490
62.8654 0.604
62.8750 0.469
62.8847 0.495
62.8943 0.583
62.9039 0.516
62.9135 0.547
62.9231 0.500
62.9327 0.490
62.9424 0.536
62.9520 0.531
62.9616 0.557
62.9712 0.568
62.9808 0.557
62.9904 0.536
63.0001 0.594
63.0097 0.698
63.0193 0.609
63.0289 0.448
63.0385 0.609
63.0481 0.563
63.0578 0.563
63.0674 0.563
63.0770 0.656
63.0866 0.667
63.0962 0.557
63.1058 0.547
63.1155 0.568
63.1251 0.609
63.1347 0.563
63.1443 0.750
63.1539 0.625
63.1635 0.635
63.1732 0.656
63.1828 0.651
63.1924 0.641
63.2020 0.693
63.2116 0.641
63.2212 0.667
63.2309 0.557
63.2405 0.651
63.2501 0.661
63.2597 0.698
63.2693 0.714
63.2790 0.573
63.2886 0.865
63.2982 0.849
63.3078 0.630
63.3174 0.703
63.3270 0.714
63.3367 0.870
63.3463 0.661
63.3559 0.807
63.3655 0.813
63.3751 0.818
63.3847 0.828
63.3944 0.714
63.4040 0.844
63.4136 0.948
63.4232 0.865
63.4328 0.750
63.4424 0.760
63.4521 0.885
63.4617 0.703
63.4713 0.750
63.4809 0.776
63.4905 0.760
63.5001 0.755
63.5098 0.672
63.5194 0.740
63.5290 0.771
63.5386 0.672
63.5482 0.922
63.5578 0.823
63.5675 0.745
63.5771 0.714
63.5867 0.693
63.5963 0.714
63.6059 0.734
63.6155 0.802
63.6252 0.766
63.6348 0.661
63.6444 0.688
63.6540 0.745
63.6636 0.656
63.6732 0.667
63.6829 0.698
63.6925 0.766
63.7021 0.724
63.7117 0.818
63.7213 0.792
63.7310 0.734
63.7406 0.792
63.7502 0.656
63.7598 0.724
63.7694 0.797
63.7790 0.682
63.7887 0.818
63.7983 0.760
63.8079 0.802
63.8175 0.792
63.8271 0.755
63.8367 0.755
63.8464 0.865
63.8560 0.750
63.8656 0.813
63.8752 0.870
63.8848 0.917
63.8944 0.807
63.9041 0.844
63.9137 0.927
63.9233 0.922
63.9329 0.891
63.9425 1.000
63.9521 0.943
63.9618 0.844
63.9714 0.938
63.9810 0.927
63.9906 0.813
64.0002 0.859
64.0098 0.854
64.0195 0.938
64.0291 0.974
64.0387 0.948
64.0483 0.979
64.0579 0.854
64.0675 0.932
64.0772 0.875
64.0868 0.917
64.0964 1.031
64.1060 0.948
64.1156 0.839
64.1252 0.917
64.1349 0.917
64.1445 0.911
64.1541 0.797
64.1637 0.911
64.1733 0.885
64.1829 0.906
64.1926 0.839
64.2022 0.964
64.2118 0.885
64.2214 0.911
64.2310 0.953
64.2407 0.958
64.2503 0.870
64.2599 1.073
64.2695 0.865
64.2791 0.885
64.2887 0.932
64.2984 0.844
64.3080 0.932
64.3176 0.828
64.3272 1.094
64.3368 0.859
64.3464 0.818
64.3561 0.927
64.3657 0.932
64.3753 0.792
64.3849 0.885
64.3945 0.911
64.4041 0.901
64.4138 0.839
64.4234 1.016
64.4330 0.911
64.4426 0.938
64.4522 0.964
64.4618 0.891
64.4715 0.943
64.4811 0.927
64.4907 0.781
64.5003 0.958
64.5099 0.901
64.5195 0.828
64.5292 0.781
64.5388 0.839
64.5484 0.865
64.5580 0.734
64.5676 0.750
64.5772 0.906
64.5869 0.786
64.5965 0.911
64.6061 0.688
64.6157 0.797
64.6253 0.833
64.6349 0.797
64.6446 0.792
64.6542 0.698
64.6638 0.786
64.6734 0.729
64.6830 0.828
64.6926 0.818
64.7023 0.688
64.7119 0.677
64.7215 0.708
64.7311 0.667
64.7407 0.651
64.7504 0.677
64.7600 0.661
64.7696 0.625
64.7792 0.625
64.7888 0.563
64.7984 0.635
64.8081 0.750
64.8177 0.719
64.8273 0.698
64.8369 0.464
64.8465 0.635
64.8561 0.630
64.8658 0.620
64.8754 0.599
64.8850 0.531
64.8946 0.630
64.9042 0.578
64.9138 0.568
64.9235 0.500
64.9331 0.615
64.9427 0.604
64.9523 0.589
64.9619 0.510
64.9715 0.510
64.9812 0.583
64.9908 0.557
65.0004 0.531
65.0100 0.625
65.0196 0.573
65.0292 0.568
65.0389 0.604
65.0485 0.604
65.0581 0.510
65.0677 0.568
65.0773 0.500
65.0869 0.526
65.0966 0.635
65.1062 0.594
65.1158 0.531
65.1254 0.599
65.1350 0.620
65.1446 0.573
65.1543 0.594
65.1639 0.458
65.1735 0.604
65.1831 0.568
65.1927 0.552
65.2023 0.609
65.2120 0.615
65.2216 0.552
65.2312 0.651
65.2408 0.557
65.2504 0.557
65.2601 0.573
65.2697 0.589
65.2793 0.677
65.2889 0.578
65.2985 0.620
65.3081 0.563
65.3178 0.661
65.3274 0.672
65.3370 0.609
65.3466 0.630
65.3562 0.620
65.3658 0.740
65.3755 0.656
65.3851 0.688
65.3947 0.609
65.4043 0.599
65.4139 0.594
65.4235 0.651
65.4332 0.625
65.4428 0.719
65.4524 0.698
65.4620 0.615
65.4716 0.849
65.4812 0.760
65.4909 0.781
65.5005 0.792
65.5101 0.813
65.5197 0.719
65.5293 0.766
65.5389 0.859
65.5486 0.661
65.5582 0.828
65.5678 0.818
65.5774 0.995
65.5870 0.901
65.5966 0.927
65.6063 0.948
65.6159 0.781
65.6255 1.016
65.6351 0.974
65.6447 1.099
65.6543 0.813
65.6640 1.042
65.6736 1.073
65.6832 0.901
65.6928 0.964
65.7024 1.000
65.7120 1.052
65.7217 1.005
65.7313 1.026
65.7409 1.005
65.7505 1.016
65.7601 1.005
65.7698 1.156
65.7794 1.083
65.7890 1.068
65.7986 1.016
65.8082 1.109
65.8178 1.089
65.8275 0.911
65.8371 0.938
65.8467 1.021
65.8563 1.078
65.8659 0.943
65.8755 1.031
65.8852 1.083
65.8948 0.943
65.9044 0.849
65.9140 0.818
65.9236 0.958
65.9332 0.917
65.9429 0.922
65.9525 0.870
65.9621 0.922
65.9717 0.786
65.9813 0.932
65.9909 0.760
66.0006 0.917
66.0102 0.911
66.0198 0.927
66.0294 0.870
66.0390 0.891
66.0486 0.729
66.0583 0.844
66.0679 0.906
66.0775 0.740
66.0871 0.818
66.0967 0.724
66.1063 0.693
66.1160 0.792
66.1256 0.766
66.1352 0.880
66.1448 0.750
66.1544 0.703
66.1640 0.729
66.1737 0.708
66.1833 0.823
66.1929 0.766
66.2025 0.708
66.2121 0.620
66.2218 0.870
66.2314 0.667
66.2410 0.786
66.2506 0.703
66.2602 0.729
66.2698 0.776
66.2795 0.750
66.2891 0.792
66.2987 0.807
66.3083 0.813
66.3179 0.833
66.3275 0.813
66.3372 0.724
66.3468 0.802
66.3564 0.646
66.3660 0.802
66.3756 0.771
66.3852 0.896
66.3949 0.766
66.4045 0.766
66.4141 0.688
66.4237 0.740
66.4333 0.776
66.4429 0.828
66.4526 0.745
66.4622 0.823
66.4718 0.750
66.4814 0.609
66.4910 0.740
66.5006 0.859
66.5103 0.750
66.5199 0.734
66.5295 0.766
66.5391 0.797
66.5487 0.833
66.5583 0.729
66.5680 0.755
66.5776 0.750
66.5872 0.750
66.5968 0.781
66.6064 0.792
66.6160 0.734
66.6257 0.750
66.6353 0.719
66.6449 0.818
66.6545 0.719
66.6641 0.708
66.6737 0.604
66.6834 0.750
66.6930 0.646
66.7026 0.677
66.7122 0.760
66.7218 0.703
66.7315 0.771
66.7411 0.651
66.7507 0.797
66.7603 0.818
66.7699 0.724
66.7795 0.760
66.7892 0.714
66.7988 0.776
66.8084 0.823
66.8180 0.813
66.8276 0.708
66.8372 0.760
66.8469 0.828
66.8565 0.948
66.8661 0.807
66.8757 0.865
66.8853 0.922
66.8949 0.917
66.9046 1.026
66.9142 0.990
66.9238 0.932
66.9334 0.885
66.9430 1.031
66.9526 0.911
66.9623 0.979
66.9719 1.167
66.9815 1.115
66.9911 1.052
67.0007 1.005
67.0103 1.078
67.0200 0.823
67.0296 0.911
67.0392 0.818
67.0488 1.005
67.0584 0.953
67.0680 0.984
67.0777 0.896
67.0873 1.005
67.0969 0.943
67.1065 0.859
67.1161 0.823
67.1257 0.964
67.1354 0.870
67.1450 0.797
67.1546 0.755
67.1642 0.839
67.1738 0.771
67.1834 0.693
67.1931 0.818
67.2027 0.714
67.2123 0.677
67.2219 0.802
67.2315 0.797
67.2412 0.734
67.2508 0.682
67.2604 0.651
67.2700 0.625
67.2796 0.620
67.2892 0.656
67.2989 0.646
67.3085 0.641
67.3181 0.620
67.3277 0.719
67.3373 0.646
67.3469 0.547
67.3566 0.448
67.3662 0.635
67.3758 0.573
67.3854 0.583
67.3950 0.583
67.4046 0.453
67.4143 0.526
67.4239 0.578
67.4335 0.578
67.4431 0.469
67.4527 0.422
67.4623 0.516
67.4720 0.510
67.4816 0.604
67.4912 0.464
67.5008 0.578
67.5104 0.547
67.5200 0.568
67.5297 0.563
67.5393 0.406
67.5489 0.505
67.5585 0.547
67.5681 0.609
67.5777 0.573
67.5874 0.464
67.5970 0.453
67.6066 0.552
67.6162 0.656
67.6258 0.531
67.6354 0.589
67.6451 0.547
67.6547 0.531
67.6643 0.516
67.6739 0.557
67.6835 0.557
67.6931 0.464
67.7028 0.578
67.7124 0.604
67.7220 0.531
67.7316 0.557
67.7412 0.536
67.7509 0.583
67.7605 0.557
67.7701 0.583
67.7797 0.464
67.7893 0.573
67.7989 0.547
67.8086 0.542
67.8182 0.510
67.8278 0.651
67.8374 0.490
67.8470 0.573
67.8566 0.557
67.8663 0.552
67.8759 0.573
67.8855 0.479
67.8951 0.542
67.9047 0.552
67.9143 0.609
67.9240 0.552
67.9336 0.547
67.9432 0.594
67.9528 0.495
67.9624 0.495
67.9720 0.500
67.9817 0.417
67.9913 0.573
68.0009 0.453
68.0105 0.547
68.0201 0.500
68.0297 0.438
68.0394 0.563
68.0490 0.526
68.0586 0.531
68.0682 0.563
68.0778 0.453
68.0874 0.536
68.0971 0.516
68.1067 0.505
68.1163 0.536
68.1259 0.432
68.1355 0.500
68.1451 0.516
68.1548 0.422
68.1644 0.427
68.1740 0.464
68.1836 0.474
68.1932 0.438
68.2028 0.438
68.2125 0.453
68.2221 0.490
68.2317 0.474
68.2413 0.510
68.2509 0.479
68.2606 0.495
68.2702 0.464
68.2798 0.448
68.2894 0.609
68.2990 0.464
68.3086 0.495
68.3183 0.484
68.3279 0.500
68.3375 0.385
68.3471 0.542
68.3567 0.500
68.3663 0.547
68.3760 0.521
68.3856 0.490
68.3952 0.536
68.4048 0.505
68.4144 0.443
68.4240 0.500
68.4337 0.536
68.4433 0.453
68.4529 0.594
68.4625 0.531
68.4721 0.479
68.4817 0.563
68.4914 0.563
68.5010 0.573
68.5106 0.531
68.5202 0.417
68.5298 0.552
68.5394 0.427
68.5491 0.693
68.5587 0.630
68.5683 0.578
68.5779 0.620
68.5875 0.672
68.5971 0.589
68.6068 0.677
68.6164 0.594
68.6260 0.536
68.6356 0.505
68.6452 0.568
68.6548 0.583
68.6645 0.557
68.6741 0.536
68.6837 0.536
68.6933 0.557
68.7029 0.510
68.7126 0.505
68.7222 0.604
68.7318 0.484
68.7414 0.510
68.7510 0.547
68.7606 0.474
68.7703 0.526
68.7799 0.531
68.7895 0.615
68.7991 0.557
68.8087 0.458
68.8183 0.531
68.8280 0.531
68.8376 0.469
68.8472 0.542
68.8568 0.469
68.8664 0.448
68.8760 0.469
68.8857 0.490
68.8953 0.526
68.9049 0.557
68.9145 0.401
68.9241 0.547
68.9337 0.557
68.9434 0.448
68.9530 0.443
68.9626 0.458
68.9722 0.448
68.9818 0.411
68.9914 0.411
69.0011 0.469
69.0107 0.547
69.0203 0.406
69.0299 0.443
69.0395 0.406
69.0491 0.453
69.0588 0.354
69.0684 0.417
69.0780 0.359
69.0876 0.469
69.0972 0.391
69.1068 0.401
69.1165 0.448
69.1261 0.391
69.1357 0.432
69.1453 0.438
69.1549 0.438
69.1645 0.453
69.1742 0.469
69.1838 0.422
69.1934 0.380
69.2030 0.307
69.2126 0.448
69.2223 0.391
69.2319 0.422
69.2415 0.490
69.2511 0.354
69.2607 0.370
69.2703 0.359
69.2800 0.443
69.2896 0.359
69.2992 0.385
69.3088 0.328
69.3184 0.354
69.3280 0.359
69.3377 0.464
69.3473 0.406
69.3569 0.453
69.3665 0.406
69.3761 0.484
69.3857 0.401
69.3954 0.406
69.4050 0.339
69.4146 0.370
69.4242 0.458
69.4338 0.370
69.4434 0.370
69.4531 0.344
69.4627 0.505
69.4723 0.464
69.4819 0.391
69.4915 0.406
69.5011 0.474
69.5108 0.365
69.5204 0.370
69.5300 0.344
69.5396 0.427
69.5492 0.469
69.5588 0.385
69.5685 0.396
69.5781 0.401
69.5877 0.370
69.5973 0.438
69.6069 0.448
69.6165 0.438
69.6262 0.328
69.6358 0.406
69.6454 0.453
69.6550 0.354
69.6646 0.443
69.6742 0.401
69.6839 0.380
69.6935 0.469
69.7031 0.464
69.7127 0.443
69.7223 0.484
69.7320 0.448
69.7416 0.464
69.7512 0.448
69.7608 0.469
69.7704 0.458
69.7800 0.547
69.7897 0.505
69.7993 0.448
69.8089 0.432
69.8185 0.516
69.8281 0.594
69.8377 0.505
69.8474 0.464
69.8570 0.474
69.8666 0.474
69.8762 0.536
69.8858 0.495
69.8954 0.521
69.9051 0.438
69.9147 0.510
69.9243 0.453
69.9339 0.500
69.9435 0.552
69.9531 0.526
69.9628 0.448
69.9724 0.464
69.9820 0.547
69.9916 0.474
70.0012 0.578
70.0108 0.510
